Counter, Time, ACCx, ACCy, ACCz, GRYx, GRYy, GRYz, MAGx, MAGy, MAGz, Temp(C), Pres(mbar), Alt (m) 
[41521, 1542153258.62, -0.15, -1.0, -0.05, 1.12, -0.7, -0.56, 2703.0, 5223.0, -741.0, 32.0, 953.0, 463.93]
[41522, 1542153258.64, -0.16, -1.17, -0.01, 1.47, -0.7, 0.0, 2687.0, 5204.0, -744.0, 32.0, 953.0, 463.93]
[41523, 1542153258.65, -0.23, -1.32, -0.12, 0.21, -0.98, -0.35, 2687.0, 5204.0, -777.0, 32.0, 953.0, 463.93]
[41524, 1542153258.66, -0.29, -1.96, -0.08, 1.68, -0.63, -0.7, 2691.0, 5215.0, -777.0, 32.0, 953.0, 463.93]
[41525, 1542153258.67, -0.31, -7.99, -2.02, -35.42, -1.47, 4.9, 2693.0, 5213.0, -750.0, 32.0, 953.0, 463.93]
[41526, 1542153258.68, -3.64, -7.99, 0.14, 57.75, 12.04, -17.85, 2752.0, 5160.0, -796.0, 32.0, 953.0, 463.93]
[41527, 1542153258.69, 0.28, -7.99, -2.04, -13.02, 0.56, -20.44, 3003.0, 4969.0, -1002.0, 32.0, 953.0, 463.93]
[41528, 1542153258.7, 1.46, -7.99, 0.68, 18.69, 1.75, -6.58, 3340.0, 4509.0, -1267.0, 32.0, 953.0, 463.93]
[41529, 1542153258.71, 2.18, -7.99, 1.04, -6.44, 6.3, 7.42, 3381.0, 3686.0, -1454.0, 32.0, 953.0, 463.93]
[41530, 1542153258.72, -0.19, -7.99, -0.66, -9.8, 3.36, 19.81, 2213.0, 2687.0, -1302.0, 32.0, 953.0, 463.93]
[41531, 1542153258.73, -1.03, -7.99, -0.21, 3.36, 8.19, 3.92, 2213.0, 2687.0, -738.0, 32.0, 953.0, 463.93]
[41532, 1542153258.74, 0.1, -7.99, -0.13, 17.85, 3.78, 2.87, 900.0, 2091.0, -738.0, 32.0, 953.0, 463.93]
[41533, 1542153258.76, 0.56, -7.99, 0.35, 0.35, 3.36, 0.42, -393.0, 615.0, 444.0, 32.0, 953.0, 463.93]
[41534, 1542153258.77, 0.79, -7.99, 0.89, -0.21, 9.45, 14.7, 617.0, 1130.0, 595.0, 32.0, 953.0, 463.93]
[41535, 1542153258.78, -0.68, -7.99, 0.4, -0.07, 20.72, 3.22, 2262.0, 2540.0, 92.0, 32.0, 953.0, 463.93]
[41536, 1542153258.79, -0.56, -7.99, 1.28, -5.11, 23.38, -4.27, 1745.0, 3136.0, 122.0, 32.0, 953.0, 463.93]
[41537, 1542153258.8, 1.44, -7.99, -1.16, -13.09, 22.12, 0.0, 1311.0, 3439.0, 156.0, 32.0, 953.0, 463.93]
[41538, 1542153258.81, 0.93, -7.99, -1.45, -0.42, 15.05, 8.75, 1311.0, 3778.0, 229.0, 32.0, 953.0, 463.93]
[41539, 1542153258.82, -1.5, -7.99, -1.87, -0.91, 5.32, 7.21, 1408.0, 3778.0, 485.0, 32.0, 953.0, 463.93]
[41540, 1542153258.83, 1.18, -7.99, 0.14, 17.08, 17.01, 10.15, 1313.0, 3835.0, 352.0, 32.0, 953.0, 463.93]
[41541, 1542153258.84, -0.29, -7.99, -0.82, 16.52, 25.97, 1.26, 1225.0, 3656.0, 378.0, 32.0, 953.0, 463.93]
[41542, 1542153258.85, -0.58, -7.99, -0.37, 15.54, 20.09, 2.73, 1303.0, 3173.0, 253.0, 32.0, 953.0, 463.93]
[41543, 1542153258.86, -0.2, -7.99, 1.26, 16.45, 6.37, 8.26, 1177.0, 2930.0, 415.0, 32.0, 953.0, 463.93]
[41544, 1542153258.88, -0.83, -7.99, 2.48, 7.49, 4.83, 5.88, 967.0, 3022.0, 475.0, 32.0, 952.26, 469.95]
[41545, 1542153258.89, -0.48, -7.99, -1.44, -7.49, -17.29, -1.33, 538.0, 4228.0, 503.0, 32.0, 952.26, 469.95]
[41546, 1542153258.9, 0.93, -7.99, 1.43, 7.91, -15.47, -0.63, 538.0, 3470.0, 476.0, 32.0, 952.26, 469.95]
[41547, 1542153258.91, 0.14, -7.99, 1.89, 13.16, -19.39, 4.13, 938.0, 3470.0, 476.0, 32.0, 952.26, 469.95]
[41548, 1542153258.92, -0.0, -7.99, -0.2, -12.81, -17.15, 16.24, 942.0, 3348.0, 473.0, 32.0, 952.26, 469.95, 'launch']
[41549, 1542153258.93, -0.66, -7.99, -0.62, -23.94, -17.85, -6.16, 932.0, 3326.0, 496.0, 32.0, 952.26, 469.95]
[41550, 1542153258.94, 0.1, -7.99, -0.07, 3.08, -22.96, -1.75, 932.0, 3311.0, 435.0, 32.0, 952.26, 469.95]
[41551, 1542153258.95, 0.47, -7.99, -0.66, -2.24, -22.05, 1.12, 928.0, 3282.0, 479.0, 32.0, 952.26, 469.95]
[41552, 1542153258.96, -0.58, -7.99, 0.21, 2.31, -24.78, 1.54, 908.0, 3296.0, 485.0, 32.0, 952.26, 469.95]
[41553, 1542153258.97, -0.22, -7.99, 0.58, -16.31, -23.73, -15.82, 919.0, 3271.0, 484.0, 32.0, 952.26, 469.95]
[41554, 1542153258.98, -0.1, -7.99, 0.14, -3.78, -29.68, 0.84, 919.0, 3271.0, 471.0, 32.0, 952.26, 469.95]
[41555, 1542153259.0, 0.38, -7.99, -0.64, -4.41, -29.96, 2.87, 913.0, 3286.0, 471.0, 32.0, 952.26, 469.95]
[41556, 1542153259.01, -0.17, -7.99, 0.12, 0.84, -36.47, 3.5, 902.0, 3277.0, 500.0, 32.0, 952.26, 469.95]
[41557, 1542153259.02, 0.11, -7.99, -0.57, -1.12, -38.92, 1.19, 896.0, 3271.0, 497.0, 32.0, 952.26, 469.95]
[41558, 1542153259.03, 0.37, -7.99, -0.76, -1.26, -43.61, 0.49, 919.0, 3277.0, 503.0, 32.0, 952.26, 469.95]
[41559, 1542153259.04, -0.42, -7.99, -0.15, -3.43, -34.16, 8.33, 898.0, 3265.0, 481.0, 32.0, 952.26, 469.95]
[41560, 1542153259.05, -0.94, -7.99, 0.5, 13.65, -40.04, 8.26, 878.0, 3295.0, 480.0, 32.0, 952.26, 469.95]
[41561, 1542153259.06, -0.02, -7.99, 0.05, -6.44, -37.31, 3.78, 878.0, 3289.0, 503.0, 32.0, 952.26, 469.95]
[41562, 1542153259.07, -0.02, -7.99, -0.41, -5.53, -36.54, 4.83, 902.0, 3289.0, 503.0, 32.0, 952.26, 469.95]
[41563, 1542153259.08, 0.2, -7.99, -0.35, 3.57, -40.18, 10.85, 880.0, 3287.0, 470.0, 32.0, 952.26, 469.95]
[41564, 1542153259.09, 0.03, -7.99, -0.12, 2.24, -41.09, 10.92, 884.0, 3267.0, 479.0, 32.0, 952.26, 469.95]
[41565, 1542153259.1, -0.21, -7.99, 0.36, -14.7, -41.16, 7.07, 892.0, 3267.0, 466.0, 32.0, 952.26, 469.95]
[41566, 1542153259.12, 0.09, -7.99, -0.15, 0.28, -42.14, 8.68, 851.0, 3277.0, 503.0, 32.0, 952.26, 469.95]
[41567, 1542153259.13, 0.11, -7.99, -0.42, 0.28, -44.24, 12.32, 847.0, 3285.0, 470.0, 32.0, 952.26, 469.95]
[41568, 1542153259.14, -0.16, -7.99, -0.28, 4.9, -45.85, 12.32, 853.0, 3267.0, 487.0, 32.0, 952.26, 469.95]
[41569, 1542153259.15, 0.15, -7.99, 0.2, 3.5, -46.55, 10.78, 853.0, 3267.0, 475.0, 32.0, 952.26, 469.95]
[41570, 1542153259.16, -0.02, -7.99, -0.31, 0.56, -48.16, 12.32, 835.0, 3255.0, 475.0, 32.0, 952.26, 469.95]
[41571, 1542153259.17, 0.13, -7.99, -0.2, 3.08, -50.19, 14.35, 833.0, 3286.0, 496.0, 32.0, 952.26, 469.95]
[41572, 1542153259.18, -0.19, -7.99, -0.04, 5.04, -52.36, 14.56, 837.0, 3277.0, 472.0, 32.0, 952.26, 469.95]
[41573, 1542153259.19, -0.02, -7.99, -0.43, 9.59, -52.85, 16.31, 812.0, 3267.0, 487.0, 32.0, 952.26, 469.95]
[41574, 1542153259.2, 0.58, -7.99, -0.54, -6.58, -58.94, 11.2, 810.0, 3275.0, 491.0, 32.0, 952.26, 469.95]
[41575, 1542153259.21, 0.06, -7.99, -0.13, 7.21, -60.69, 17.29, 790.0, 3290.0, 461.0, 32.0, 952.26, 469.95]
[41576, 1542153259.22, -0.09, -7.99, -0.05, 5.53, -63.56, 18.13, 796.0, 3273.0, 464.0, 32.0, 952.26, 469.95]
[41577, 1542153259.23, 0.1, -7.99, 0.07, 5.46, -62.79, 16.31, 796.0, 3273.0, 512.0, 32.0, 952.26, 469.95]
[41578, 1542153259.25, 0.21, -7.99, -0.33, 4.69, -65.17, 18.48, 758.0, 3284.0, 512.0, 32.0, 952.26, 469.95]
[41579, 1542153259.26, -0.13, -7.99, -0.19, 5.95, -68.32, 17.57, 752.0, 3269.0, 477.0, 32.0, 952.26, 469.95]
[41580, 1542153259.27, -0.21, -7.99, -0.32, 4.83, -71.68, 17.36, 736.0, 3277.0, 474.0, 32.0, 952.26, 469.95]
[41581, 1542153259.28, 0.16, -7.99, 0.01, 6.79, -74.13, 18.34, 733.0, 3265.0, 475.0, 32.0, 952.26, 469.95]
[41582, 1542153259.29, 0.19, -7.99, -0.19, 4.9, -77.21, 19.95, 733.0, 3277.0, 483.0, 32.0, 952.26, 469.95]
[41583, 1542153259.3, -0.09, -7.99, -0.14, 6.79, -79.52, 19.74, 719.0, 3295.0, 457.0, 32.0, 952.26, 469.95]
[41584, 1542153259.31, 0.05, -7.99, -0.03, 7.49, -82.53, 19.39, 719.0, 3267.0, 448.0, 32.0, 952.26, 469.95]
[41585, 1542153259.32, 0.03, -7.99, -0.11, 7.28, -85.82, 19.81, 729.0, 3267.0, 448.0, 32.0, 952.26, 469.95]
[41586, 1542153259.33, -0.05, -7.99, -0.09, 6.86, -88.62, 20.79, 693.0, 3269.0, 471.0, 32.0, 952.26, 469.95]
[41587, 1542153259.34, -0.05, -7.99, -0.33, 8.54, -92.89, 20.58, 689.0, 3293.0, 441.0, 32.0, 952.26, 469.95]
[41588, 1542153259.35, 0.06, -7.99, 0.05, 8.54, -96.39, 20.23, 677.0, 3253.0, 463.0, 32.0, 952.26, 469.95]
[41589, 1542153259.37, 0.05, -7.99, -0.1, 7.49, -99.26, 20.79, 680.0, 3274.0, 428.0, 32.0, 952.26, 469.95]
[41590, 1542153259.38, 0.09, -7.99, -0.06, 9.45, -102.76, 21.42, 656.0, 3282.0, 421.0, 32.0, 952.26, 469.95]
[41591, 1542153259.39, -0.21, -7.99, -0.24, 9.8, -106.89, 20.79, 650.0, 3272.0, 441.0, 32.0, 952.26, 469.95]
[41592, 1542153259.4, 0.09, -7.99, -0.09, 10.15, -109.27, 21.14, 650.0, 3272.0, 428.0, 32.0, 952.26, 469.95]
[41593, 1542153259.41, 0.09, -7.99, -0.11, 9.59, -112.42, 20.79, 615.0, 3271.0, 428.0, 32.0, 952.26, 469.95]
[41594, 1542153259.42, 0.15, -7.99, 0.02, 10.36, -115.5, 20.65, 599.0, 3266.0, 428.0, 32.0, 952.26, 469.95]
[41595, 1542153259.43, 0.01, -7.99, -0.32, 10.5, -118.65, 20.65, 601.0, 3276.0, 425.0, 32.0, 952.26, 469.95]
[41596, 1542153259.44, 0.1, -7.99, -0.22, 10.29, -121.52, 20.16, 581.0, 3262.0, 406.0, 32.0, 952.26, 469.95]
[41597, 1542153259.45, 0.17, -7.99, -0.23, 10.99, -122.99, 19.74, 630.0, 3221.0, 338.0, 32.0, 952.26, 469.95]
[41598, 1542153259.46, 0.16, -7.99, -0.13, 10.29, -126.35, 19.46, 571.0, 3278.0, 384.0, 32.0, 952.26, 469.95]
[41599, 1542153259.47, -0.01, -7.99, -0.19, 10.85, -127.54, 18.55, 571.0, 3254.0, 385.0, 32.0, 952.26, 469.95]
[41600, 1542153259.49, -0.06, -7.99, -0.32, 9.59, -129.15, 18.27, 540.0, 3254.0, 385.0, 32.0, 952.26, 469.95]
[41601, 1542153259.5, 0.25, -7.99, -0.22, 10.36, -130.48, 18.2, 510.0, 3273.0, 391.0, 32.0, 952.26, 469.95]
[41602, 1542153259.51, 0.04, -7.99, 0.06, 10.57, -134.05, 17.36, 528.0, 3275.0, 328.0, 32.0, 952.26, 469.95]
[41603, 1542153259.52, 0.08, -7.99, -0.12, 9.52, -138.74, 16.03, 514.0, 3260.0, 325.0, 32.0, 952.26, 469.95]
[41604, 1542153259.53, 0.12, -7.99, -0.17, 8.68, -139.16, 15.96, 477.0, 3255.0, 337.0, 32.0, 952.26, 469.95]
[41605, 1542153259.54, 0.22, -7.99, -0.27, 9.24, -138.74, 15.33, 471.0, 3261.0, 315.0, 32.0, 952.26, 469.95]
[41606, 1542153259.55, 0.03, -7.99, -0.08, 10.71, -140.28, 14.63, 451.0, 3251.0, 313.0, 32.0, 952.26, 469.95]
[41607, 1542153259.56, 0.04, -7.99, -0.02, 7.42, -143.22, 13.65, 451.0, 3253.0, 290.0, 32.0, 952.26, 469.95]
[41608, 1542153259.57, -0.0, -7.99, 0.18, 7.56, -146.23, 12.95, 447.0, 3253.0, 290.0, 32.0, 952.26, 469.95, 'launch']
[41609, 1542153259.58, 0.07, -7.99, -0.05, 4.48, -146.3, 12.11, 439.0, 3253.0, 283.0, 32.0, 952.26, 469.95]
[41610, 1542153259.59, 0.14, -7.99, -0.21, 4.76, -153.3, 11.76, 437.0, 3259.0, 256.0, 32.0, 952.26, 469.95]
[41611, 1542153259.61, 0.03, -7.99, -0.18, 3.57, -156.31, 10.01, 408.0, 3253.0, 237.0, 32.0, 952.26, 469.95]
[41612, 1542153259.62, 0.07, -7.99, -0.2, 0.91, -157.64, 9.31, 384.0, 3265.0, 212.0, 32.0, 952.26, 469.95]
[41613, 1542153259.63, 0.08, -7.99, -0.28, 2.66, -144.55, 9.66, 392.0, 3252.0, 217.0, 32.0, 952.26, 469.95]
[41614, 1542153259.64, 0.16, -7.99, -0.23, 0.14, -166.67, 9.66, 379.0, 3261.0, 189.0, 32.0, 952.26, 469.95]
[41615, 1542153259.65, -0.02, -7.99, -0.18, -6.02, -176.96, 7.56, 379.0, 3261.0, 189.0, 32.0, 952.26, 469.95]
[41616, 1542153259.66, -0.02, -7.99, -0.13, -1.47, -174.44, 7.21, 377.0, 3265.0, 189.0, 32.0, 952.26, 469.95]
[41617, 1542153259.67, 0.11, -7.99, -0.2, -3.85, -181.02, 7.35, 385.0, 3247.0, 147.0, 32.0, 952.26, 469.95]
[41618, 1542153259.68, -0.06, -7.99, -0.25, -5.39, -183.33, 6.3, 394.0, 3245.0, 164.0, 32.0, 952.26, 469.95]
[41619, 1542153259.69, 0.05, -7.99, -0.15, -10.64, -192.22, 6.09, 361.0, 3253.0, 115.0, 32.0, 952.26, 469.95]
[41620, 1542153259.7, 0.07, -7.99, -0.29, -6.02, -199.08, 6.23, 347.0, 3259.0, 96.0, 32.0, 952.26, 469.95]
[41621, 1542153259.71, 0.14, -7.99, -0.24, -10.99, -205.66, 6.23, 355.0, 3228.0, 71.0, 32.0, 952.26, 469.95]
[41622, 1542153259.73, -0.09, -7.99, -0.33, -10.92, -211.61, 5.67, 355.0, 3234.0, 49.0, 32.0, 952.26, 469.95]
[41623, 1542153259.74, 0.2, -7.99, -0.1, -11.13, -220.85, 6.16, 357.0, 3234.0, 49.0, 32.0, 952.26, 469.95]
[41624, 1542153259.75, -0.09, -7.99, -0.5, -16.87, -230.37, 5.95, 361.0, 3242.0, 29.0, 32.0, 952.26, 469.95]
[41625, 1542153259.76, 0.06, -7.99, -0.24, -13.65, -250.39, 6.23, 357.0, 3251.0, 13.0, 32.0, 952.26, 469.95]
[41626, 1542153259.77, -0.15, -7.99, -0.23, -15.68, -244.86, 6.79, 365.0, 3260.0, -29.0, 32.0, 952.26, 469.95]
[41627, 1542153259.78, 0.01, -7.99, -0.26, -16.66, -248.92, 7.84, 347.0, 3229.0, -77.0, 32.0, 952.26, 469.95]
[41628, 1542153259.79, -0.11, -7.99, -0.1, -18.83, -254.52, 7.84, 365.0, 3242.0, -58.0, 32.0, 952.26, 469.95]
[41629, 1542153259.8, 0.04, -7.99, 0.04, -19.81, -264.18, 9.38, 359.0, 3238.0, -118.0, 32.0, 952.26, 469.95]
[41630, 1542153259.81, -0.11, -7.99, -0.15, -21.49, -271.32, 10.01, 359.0, 3262.0, -135.0, 32.0, 952.26, 469.95]
[41631, 1542153259.82, -0.18, -7.99, -0.25, -22.47, -278.25, 10.78, 355.0, 3262.0, -135.0, 32.0, 952.26, 469.95]
[41632, 1542153259.83, -0.06, -7.99, -0.08, -18.55, -285.18, 11.48, 390.0, 3229.0, -131.0, 32.0, 950.96, 480.61]
[41633, 1542153259.84, 0.02, -7.99, -0.2, -24.85, -299.04, 13.09, 400.0, 3248.0, -179.0, 31.94, 950.96, 480.61]
[41634, 1542153259.86, -0.04, -7.99, -0.03, -22.96, -304.64, 13.72, 392.0, 3235.0, -211.0, 31.94, 950.96, 480.61]
[41635, 1542153259.87, -0.09, -7.99, -0.21, -22.96, -314.16, 14.98, 408.0, 3252.0, -208.0, 31.94, 950.96, 480.61]
[41636, 1542153259.88, 0.07, -7.99, -0.17, -21.35, -319.55, 16.24, 434.0, 3256.0, -268.0, 31.94, 950.96, 480.61]
[41637, 1542153259.89, -0.01, -7.99, -0.23, -23.1, -326.34, 18.41, 443.0, 3254.0, -267.0, 31.94, 950.96, 480.61]
[41638, 1542153259.9, 0.03, -7.99, -0.04, -20.72, -336.21, 19.6, 443.0, 3254.0, -356.0, 31.94, 950.96, 480.61]
[41639, 1542153259.91, -0.09, -7.99, -0.0, -21.42, -347.83, 19.88, 530.0, 3209.0, -356.0, 31.94, 950.96, 480.61]
[41640, 1542153259.92, -0.11, -7.99, -0.27, -19.88, -354.13, 20.37, 502.0, 3243.0, -340.0, 31.94, 950.96, 480.61]
[41641, 1542153259.93, -0.21, -7.99, -0.19, -19.04, -363.44, 21.63, 512.0, 3262.0, -375.0, 31.94, 950.96, 480.61]
[41642, 1542153259.94, 0.01, -7.99, -0.15, -21.07, -373.1, 22.26, 550.0, 3252.0, -419.0, 31.94, 950.96, 480.61]
[41643, 1542153259.95, 0.11, -7.99, -0.07, -16.31, -380.8, 22.82, 567.0, 3261.0, -410.0, 31.94, 950.96, 480.61]
[41644, 1542153259.96, 0.14, -7.99, -0.37, -16.1, -387.87, 24.08, 620.0, 3261.0, -447.0, 31.94, 950.96, 480.61]
[41645, 1542153259.98, -0.01, -7.99, -0.14, -15.19, -394.03, 24.08, 620.0, 3258.0, -454.0, 31.94, 950.96, 480.61]
[41646, 1542153259.99, 0.01, -7.99, -0.25, -15.89, -402.99, 23.59, 654.0, 3258.0, -454.0, 31.94, 950.96, 480.61]
[41647, 1542153260.0, -0.02, -7.99, -0.27, -13.3, -409.43, 23.03, 689.0, 3248.0, -477.0, 31.94, 950.96, 480.61]
[41648, 1542153260.01, -0.04, -7.99, -0.18, -11.9, -416.08, 22.96, 743.0, 3250.0, -477.0, 31.94, 950.96, 480.61]
[41649, 1542153260.02, 0.13, -7.99, -0.29, -9.38, -418.25, 22.89, 768.0, 3280.0, -512.0, 31.94, 950.96, 480.61]
[41650, 1542153260.03, 0.13, -7.99, -0.19, -10.36, -423.5, 21.98, 806.0, 3261.0, -514.0, 31.94, 950.96, 480.61]
[41651, 1542153260.04, 0.13, -7.99, -0.19, -8.75, -429.1, 20.65, 853.0, 3286.0, -498.0, 31.94, 950.96, 480.61]
[41652, 1542153260.05, 0.19, -7.99, -0.24, -9.17, -430.92, 20.37, 934.0, 3275.0, -502.0, 31.94, 950.96, 480.61]
[41653, 1542153260.06, 0.14, -7.99, -0.35, -9.45, -431.76, 20.23, 934.0, 3275.0, -547.0, 31.94, 950.96, 480.61]
[41654, 1542153260.07, 0.08, -7.99, -0.35, -10.71, -434.84, 18.69, 993.0, 3241.0, -547.0, 31.94, 950.96, 480.61]
[41655, 1542153260.08, -0.01, -7.99, -0.21, -6.65, -432.95, 17.08, 1012.0, 3267.0, -472.0, 31.94, 950.96, 480.61]
[41656, 1542153260.1, 0.01, -7.99, -0.14, -9.73, -435.82, 16.8, 1014.0, 3282.0, -493.0, 31.94, 950.96, 480.61]
[41657, 1542153260.11, -0.09, -7.99, -0.07, -7.98, -437.01, 15.33, 1091.0, 3294.0, -460.0, 31.94, 950.96, 480.61]
[41658, 1542153260.12, 0.05, -7.99, -0.26, -14.07, -440.16, 14.0, 1119.0, 3282.0, -444.0, 31.94, 950.96, 480.61]
[41659, 1542153260.13, -0.3, -7.99, -0.4, -13.79, -436.87, 11.83, 1157.0, 3301.0, -408.0, 31.94, 950.96, 480.61]
[41660, 1542153260.14, 0.03, -7.99, -0.4, -17.92, -443.03, 11.13, 1219.0, 3290.0, -373.0, 31.94, 950.96, 480.61]
[41661, 1542153260.15, 0.17, -7.99, -0.1, -17.5, -447.86, 12.46, 1219.0, 3290.0, -356.0, 31.94, 950.96, 480.61]
[41662, 1542153260.16, -0.02, -7.99, 0.04, -16.45, -444.01, 13.23, 1237.0, 3300.0, -356.0, 31.94, 950.96, 480.61]
[41663, 1542153260.17, -0.02, -7.99, -0.21, -22.47, -447.51, 12.32, 1247.0, 3308.0, -317.0, 31.94, 950.96, 480.61]
[41664, 1542153260.18, -0.08, -7.99, -0.45, -19.32, -453.25, 12.88, 1286.0, 3304.0, -256.0, 31.94, 950.96, 480.61]
[41665, 1542153260.19, 0.0, -7.99, -0.24, -22.19, -457.73, 12.67, 1327.0, 3302.0, -211.0, 31.94, 950.96, 480.61, 'launch']
[41666, 1542153260.2, -0.05, -7.99, -0.74, -25.97, -464.73, 13.65, 1377.0, 3290.0, -174.0, 31.94, 950.96, 480.61]
[41667, 1542153260.22, -0.13, -7.99, -0.66, -22.75, -466.69, 14.56, 1337.0, 3306.0, -106.0, 31.94, 950.96, 480.61]
[41668, 1542153260.23, -0.11, -7.99, -0.23, -23.03, -471.52, 15.19, 1337.0, 3261.0, -112.0, 31.94, 950.96, 480.61]
[41669, 1542153260.24, -0.14, -7.99, -0.49, -26.18, -478.03, 16.8, 1406.0, 3261.0, -112.0, 31.94, 950.96, 480.61]
[41670, 1542153260.25, -0.14, -7.99, -0.21, -22.05, -486.64, 18.62, 1351.0, 3304.0, -36.0, 31.94, 950.96, 480.61]
[41671, 1542153260.26, -0.62, -7.99, -0.25, -24.01, -492.45, 17.64, 1349.0, 3306.0, 11.0, 31.94, 950.96, 480.61]
[41672, 1542153260.27, 0.12, -7.99, -0.27, -28.7, -508.83, 19.39, 1402.0, 3280.0, 117.0, 31.94, 950.96, 480.61]
[41673, 1542153260.28, -0.14, -7.99, -0.55, -26.53, -506.1, 21.28, 1308.0, 3318.0, 160.0, 31.94, 950.96, 480.61]
[41674, 1542153260.29, -0.11, -7.99, -0.6, -19.39, -518.56, 21.7, 1278.0, 3314.0, 202.0, 31.94, 950.96, 480.61]
[41675, 1542153260.3, 0.06, -7.99, -0.11, -23.31, -519.68, 21.91, 1312.0, 3263.0, 218.0, 31.94, 950.96, 480.61]
[41676, 1542153260.31, 0.03, -7.99, -0.09, -23.8, -531.02, 23.24, 1312.0, 3263.0, 313.0, 31.94, 950.96, 480.61]
[41677, 1542153260.32, 0.08, -7.99, -0.01, -13.79, -535.78, 23.31, 1219.0, 3318.0, 313.0, 31.94, 950.96, 480.61]
[41678, 1542153260.34, -0.27, -7.99, -0.6, -16.87, -542.22, 21.98, 1181.0, 3319.0, 333.0, 31.94, 950.96, 480.61]
[41679, 1542153260.35, 0.06, -7.99, -0.34, -6.09, -535.57, 23.17, 1132.0, 3285.0, 419.0, 31.94, 950.96, 480.61]
[41680, 1542153260.36, 0.22, -7.99, -0.33, -9.73, -557.06, 21.63, 1091.0, 3295.0, 419.0, 31.94, 950.96, 480.61]
[41681, 1542153260.37, 0.21, -7.99, -0.11, -10.92, -552.23, 21.28, 1007.0, 3283.0, 439.0, 31.94, 950.96, 480.61]
[41682, 1542153260.38, 0.09, -7.99, 0.03, -12.67, -571.97, 21.07, 961.0, 3316.0, 448.0, 31.94, 950.96, 480.61]
[41683, 1542153260.39, 0.25, -7.99, -0.74, -21.0, -563.01, 19.39, 904.0, 3281.0, 474.0, 31.94, 950.96, 480.61]
[41684, 1542153260.4, 0.1, -7.99, -0.6, -12.67, -559.65, 17.43, 904.0, 3281.0, 470.0, 31.94, 950.96, 480.61]
[41685, 1542153260.41, -0.19, -7.99, -0.5, -7.77, -559.16, 0.07, 845.0, 3291.0, 470.0, 31.94, 950.96, 480.61]
[41686, 1542153260.42, -0.24, -7.99, -0.31, -18.13, -558.67, 18.48, 808.0, 3311.0, 481.0, 31.94, 950.96, 480.61]
[41687, 1542153260.43, 0.36, -7.99, -0.54, -4.55, -546.07, 16.1, 715.0, 3290.0, 450.0, 31.94, 950.96, 480.61]
[41688, 1542153260.44, 0.04, -7.99, 0.19, -12.53, -541.03, 14.56, 674.0, 3275.0, 448.0, 31.94, 950.96, 480.61]
[41689, 1542153260.46, 0.71, -7.99, -0.15, -8.4, -546.07, 13.65, 635.0, 3275.0, 389.0, 31.94, 950.96, 480.61]
[41690, 1542153260.47, 0.94, -7.99, -0.29, -10.43, -553.35, 15.89, 573.0, 3270.0, 369.0, 31.94, 950.96, 480.61]
[41691, 1542153260.48, -0.51, -7.99, -1.17, -20.44, -555.17, 11.13, 530.0, 3276.0, 359.0, 31.94, 950.96, 480.61]
[41692, 1542153260.49, 0.39, -7.99, -0.56, -24.64, -551.11, 13.86, 479.0, 3239.0, 288.0, 31.94, 950.96, 480.61]
[41693, 1542153260.5, 0.46, -7.99, -0.86, -6.86, -554.82, 14.63, 479.0, 3258.0, 252.0, 31.94, 950.96, 480.61]
[41694, 1542153260.51, 0.57, -7.99, -0.14, -22.19, -540.47, 16.45, 443.0, 3258.0, 252.0, 31.94, 950.96, 480.61]
[41695, 1542153260.52, -0.02, -7.99, -0.04, -3.99, -543.48, 15.12, 426.0, 3264.0, 219.0, 31.94, 950.96, 480.61]
[41696, 1542153260.53, -0.43, -7.99, -0.37, -25.83, -552.65, 16.94, 396.0, 3256.0, 171.0, 31.94, 950.96, 480.61]
[41697, 1542153260.55, 0.05, -7.99, 0.2, -17.71, -541.73, 16.52, 388.0, 3252.0, 108.0, 31.94, 950.96, 480.61]
[41698, 1542153260.56, -0.3, -7.99, 0.26, -6.09, -543.13, 18.13, 367.0, 3260.0, 54.0, 31.94, 950.96, 480.61]
[41699, 1542153260.57, -0.05, -7.99, -0.48, -5.95, -548.24, 19.74, 353.0, 3256.0, -10.0, 31.94, 950.96, 480.61]
[41700, 1542153260.58, -0.23, -7.99, -0.16, -25.83, -540.33, 17.43, 367.0, 3254.0, -120.0, 31.94, 950.96, 480.61]
[41701, 1542153260.59, -0.16, -7.99, -0.22, -27.02, -546.77, 17.43, 367.0, 3272.0, -118.0, 31.94, 950.96, 480.61]
[41702, 1542153260.6, -0.29, -7.99, -0.76, -15.05, -541.1, 20.16, 380.0, 3272.0, -118.0, 31.94, 950.96, 480.61]
[41703, 1542153260.61, -0.22, -7.99, -0.32, -9.66, -538.02, 21.49, 386.0, 3260.0, -166.0, 31.94, 950.96, 480.61]
[41704, 1542153260.62, 0.18, -7.99, -1.02, -1.54, -536.9, 18.13, 416.0, 3260.0, -227.0, 31.94, 950.96, 480.61]
[41705, 1542153260.63, -0.11, -7.99, -0.39, -4.83, -536.2, 17.71, 459.0, 3275.0, -273.0, 31.94, 950.96, 480.61]
[41706, 1542153260.64, -0.11, -7.99, -0.09, -12.39, -543.97, 19.32, 499.0, 3277.0, -308.0, 31.94, 950.96, 480.61]
[41707, 1542153260.65, -0.64, -7.99, -0.75, -12.11, -543.55, 17.15, 524.0, 3268.0, -361.0, 31.94, 950.96, 480.61]
[41708, 1542153260.67, 0.14, -7.99, -0.27, -9.59, -532.84, 15.54, 591.0, 3270.0, -385.0, 31.94, 950.96, 480.61]
[41709, 1542153260.68, -0.47, -7.99, -0.08, -4.76, -519.75, 16.45, 591.0, 3270.0, -517.0, 31.94, 950.96, 480.61]
[41710, 1542153260.69, -0.01, -7.99, -0.61, -7.0, -515.13, 15.68, 684.0, 3217.0, -517.0, 31.94, 950.96, 480.61]
[41711, 1542153260.7, -0.13, -7.99, -0.55, -5.25, -517.02, 14.28, 686.0, 3267.0, -461.0, 31.94, 950.96, 480.61]
[41712, 1542153260.71, 0.24, -7.99, 0.14, -25.13, -521.29, 14.07, 733.0, 3292.0, -487.0, 31.94, 950.96, 480.61]
[41713, 1542153260.72, -0.15, -7.99, -0.42, 3.57, -507.01, 12.46, 792.0, 3274.0, -473.0, 31.94, 950.96, 480.61]
[41714, 1542153260.73, -0.11, -7.99, -0.28, -32.76, -531.44, 11.2, 865.0, 3288.0, -500.0, 31.94, 950.96, 480.61]
[41715, 1542153260.74, -0.14, -7.99, -0.12, 8.61, -495.32, 12.46, 910.0, 3289.0, -467.0, 31.94, 950.96, 480.61]
[41716, 1542153260.75, -0.14, -7.99, -0.18, -15.54, -505.26, 12.6, 910.0, 3301.0, -483.0, 31.94, 950.96, 480.61]
[41717, 1542153260.76, -0.2, -7.99, -0.17, -9.52, -511.63, 10.29, 954.0, 3301.0, -483.0, 31.94, 950.96, 480.61]
[41718, 1542153260.77, 0.16, -7.99, -0.43, 0.14, -487.2, 11.69, 1006.0, 3299.0, -459.0, 31.94, 950.96, 480.61]
[41719, 1542153260.79, 0.01, -7.99, -0.27, -21.28, -516.39, 11.2, 1073.0, 3299.0, -424.0, 31.94, 950.96, 480.61]
[41720, 1542153260.8, 0.07, -7.99, -0.51, -12.95, -503.37, 12.18, 1111.0, 3287.0, -426.0, 31.94, 950.96, 480.61]
[41721, 1542153260.81, -0.1, -7.99, -0.08, -10.29, -511.56, 10.29, 1168.0, 3307.0, -381.0, 31.94, 919.3, 744.73]
[41722, 1542153260.82, -0.47, -7.99, -0.35, -6.02, -520.87, 10.08, 1196.0, 3313.0, -366.0, 31.94, 919.3, 744.73]
[41723, 1542153260.83, -0.16, -7.99, -0.49, -12.67, -518.98, 9.73, 1231.0, 3307.0, -300.0, 31.94, 919.3, 744.73]
[41724, 1542153260.84, -0.23, -7.99, -0.58, -13.86, -510.37, 10.36, 1231.0, 3307.0, -286.0, 31.94, 919.3, 744.73]
[41725, 1542153260.85, -0.14, -7.99, -0.24, -11.55, -522.34, 10.85, 1284.0, 3312.0, -286.0, 31.94, 919.3, 744.73]
[41726, 1542153260.86, 0.12, -7.99, -0.23, -18.9, -521.85, 10.29, 1307.0, 3321.0, -227.0, 31.94, 919.3, 744.73]
[41727, 1542153260.87, -0.15, -7.99, -0.49, -4.06, -510.65, 9.38, 1319.0, 3303.0, -172.0, 31.94, 919.3, 744.73]
[41728, 1542153260.88, 0.16, -7.99, -0.48, -8.96, -501.2, 8.96, 1343.0, 3311.0, -125.0, 31.94, 919.3, 744.73]
[41729, 1542153260.89, 0.17, -7.99, -0.23, -6.02, -521.29, 8.12, 1343.0, 3311.0, -79.0, 31.94, 919.3, 744.73]
[41730, 1542153260.9, 0.09, -7.99, -0.9, -12.18, -513.59, 7.98, 1355.0, 3311.0, 20.0, 31.94, 919.3, 744.73]
[41731, 1542153260.92, -0.08, -7.99, -0.48, -14.7, -518.77, 7.84, 1355.0, 3333.0, 49.0, 31.94, 919.3, 744.73]
[41732, 1542153260.93, -0.09, -7.99, -0.47, -16.1, -515.41, 7.91, 1347.0, 3333.0, 73.0, 31.94, 919.3, 744.73]
[41733, 1542153260.94, -0.15, -7.99, -0.38, 3.01, -515.9, 5.6, 1349.0, 3298.0, 73.0, 31.94, 919.3, 744.73]
[41734, 1542153260.95, 0.52, -7.99, -0.81, -5.39, -510.44, 7.28, 1325.0, 3318.0, 148.0, 31.94, 919.3, 744.73]
[41735, 1542153260.96, -0.18, -7.99, -0.35, -4.34, -514.22, 8.19, 1316.0, 3324.0, 191.0, 31.94, 919.3, 744.73]
[41736, 1542153260.97, -0.09, -7.99, -0.2, -9.94, -512.54, 9.03, 1284.0, 3306.0, 240.0, 31.94, 919.3, 744.73]
[41737, 1542153260.98, 0.1, -7.99, -0.21, -1.05, -507.5, 7.91, 1245.0, 3304.0, 268.0, 31.94, 919.3, 744.73]
[41738, 1542153260.99, -0.03, -7.99, -0.42, -12.74, -520.38, 9.94, 1219.0, 3306.0, 305.0, 31.94, 919.3, 744.73]
[41739, 1542153261.0, -0.22, -7.99, -0.29, -33.04, -531.3, 8.89, 1219.0, 3306.0, 369.0, 31.94, 919.3, 744.73]
[41740, 1542153261.01, 0.03, -7.99, -0.13, 2.66, -511.77, 9.24, 1176.0, 3306.0, 369.0, 31.94, 919.3, 744.73]
[41741, 1542153261.02, -0.01, -7.99, -0.51, -7.42, -503.93, 11.9, 1133.0, 3296.0, 400.0, 31.94, 919.3, 744.73]
[41742, 1542153261.04, 0.22, -7.99, -0.08, -2.73, -528.01, 12.11, 1079.0, 3296.0, 420.0, 31.94, 919.3, 744.73]
[41743, 1542153261.05, -0.09, -7.99, -0.23, 3.29, -506.73, 11.69, 1014.0, 3290.0, 443.0, 31.94, 919.3, 744.73]
[41744, 1542153261.06, -0.02, -7.99, -0.34, -4.13, -494.06, 11.83, 971.0, 3316.0, 482.0, 31.94, 919.3, 744.73]
[41745, 1542153261.07, 0.02, -7.99, -0.47, -11.48, -517.37, 12.39, 908.0, 3308.0, 499.0, 31.94, 919.3, 744.73]
[41746, 1542153261.08, -0.3, -7.99, -0.52, -3.85, -515.06, 12.81, 855.0, 3269.0, 493.0, 31.94, 919.3, 744.73]
[41747, 1542153261.09, 0.61, -7.99, -0.27, -5.88, -518.35, 12.25, 855.0, 3269.0, 513.0, 31.94, 919.3, 744.73]
[41748, 1542153261.1, 0.07, -7.99, -0.26, 7.77, -510.51, 11.48, 820.0, 3280.0, 513.0, 31.94, 919.3, 744.73]
[41749, 1542153261.11, -0.1, -7.99, -0.08, -12.67, -522.48, 9.8, 749.0, 3277.0, 471.0, 31.94, 919.3, 744.73]
[41750, 1542153261.12, -0.62, -7.99, -0.48, 1.68, -506.94, 9.73, 692.0, 3284.0, 463.0, 31.94, 919.3, 744.73]
[41751, 1542153261.13, 0.02, -7.99, -0.5, -17.01, -513.38, 11.2, 654.0, 3273.0, 458.0, 31.94, 919.3, 744.73]
[41752, 1542153261.14, 0.32, -7.99, -0.55, -6.93, -525.98, 11.76, 597.0, 3256.0, 402.0, 31.94, 919.3, 744.73]
[41753, 1542153261.16, 0.33, -7.99, -0.44, 2.66, -514.78, 9.31, 538.0, 3287.0, 390.0, 31.94, 919.3, 744.73]
[41754, 1542153261.17, 0.3, -7.99, -0.4, 3.43, -509.11, 10.99, 538.0, 3281.0, 331.0, 31.94, 919.3, 744.73]
[41755, 1542153261.18, 0.18, -7.99, -0.33, -6.09, -519.4, 11.62, 514.0, 3281.0, 331.0, 31.94, 919.3, 744.73]
[41756, 1542153261.19, -0.05, -7.99, -0.13, -6.09, -512.61, 11.48, 499.0, 3273.0, 311.0, 31.94, 919.3, 744.73]
[41757, 1542153261.2, -0.22, -7.99, -0.47, -0.63, -511.14, 11.62, 424.0, 3279.0, 265.0, 31.94, 919.3, 744.73]
[41758, 1542153261.21, 0.27, -7.99, -0.5, -12.67, -516.39, 14.0, 416.0, 3255.0, 200.0, 31.94, 919.3, 744.73]
[41759, 1542153261.22, 0.37, -7.99, -0.2, -7.91, -499.38, 14.42, 377.0, 3271.0, 156.0, 31.94, 919.3, 744.73]
[41760, 1542153261.23, -0.21, -7.99, -0.44, -3.36, -511.21, 14.07, 371.0, 3261.0, 124.0, 31.94, 919.3, 744.73]
[41761, 1542153261.24, -0.25, -7.99, -0.43, -13.86, -511.07, 14.14, 365.0, 3259.0, 97.0, 31.94, 919.3, 744.73]
[41762, 1542153261.25, -0.25, -7.99, -0.16, -7.49, -511.7, 14.77, 365.0, 3259.0, -14.0, 31.94, 919.3, 744.73]
[41763, 1542153261.26, 0.07, -7.99, -0.45, -5.32, -505.4, 15.68, 373.0, 3256.0, -14.0, 31.94, 919.3, 744.73]
[41764, 1542153261.27, 0.04, -7.99, -0.04, -6.3, -511.91, 15.33, 369.0, 3272.0, -73.0, 31.94, 919.3, 744.73]
[41765, 1542153261.29, 0.11, -7.99, -0.0, -2.38, -515.83, 15.96, 373.0, 3278.0, -103.0, 31.94, 919.3, 744.73]
[41766, 1542153261.3, 0.12, -7.99, -0.37, -11.2, -505.33, 13.3, 457.0, 3205.0, -228.0, 31.94, 919.3, 744.73]
[41767, 1542153261.31, 0.15, -7.99, -0.38, -2.31, -509.25, 15.82, 426.0, 3274.0, -201.0, 31.94, 919.3, 744.73]
[41768, 1542153261.32, -0.02, -7.99, -0.25, -16.03, -511.98, 13.58, 439.0, 3270.0, -255.0, 31.94, 919.3, 744.73]
[41769, 1542153261.33, 0.35, -7.99, -0.3, -6.86, -515.69, 12.88, 439.0, 3262.0, -297.0, 31.94, 919.3, 744.73]
[41770, 1542153261.34, 0.13, -7.99, -0.48, -14.0, -520.31, 12.67, 502.0, 3262.0, -297.0, 31.94, 919.3, 744.73]
[41771, 1542153261.35, 0.01, -7.99, -0.13, -4.48, -513.73, 11.2, 530.0, 3268.0, -363.0, 31.94, 919.3, 744.73]
[41772, 1542153261.36, 0.14, -7.99, -0.63, -15.47, -531.58, 10.99, 568.0, 3273.0, -393.0, 31.94, 919.3, 744.73]
[41773, 1542153261.37, 0.19, -7.99, -0.63, -15.33, -509.81, 10.22, 613.0, 3275.0, -394.0, 31.94, 919.3, 744.73]
[41774, 1542153261.38, 0.01, -7.99, -0.56, -1.26, -504.07, 10.15, 666.0, 3281.0, -456.0, 31.94, 919.3, 744.73]
[41775, 1542153261.39, 0.22, -7.99, -0.24, -19.81, -513.94, 11.48, 715.0, 3265.0, -461.0, 31.94, 919.3, 744.73]
[41776, 1542153261.41, 0.13, -7.99, -0.41, -11.83, -510.02, 10.78, 761.0, 3291.0, -477.0, 31.94, 919.3, 744.73]
[41777, 1542153261.42, 0.54, -7.99, -0.15, -10.08, -514.71, 9.59, 761.0, 3291.0, -481.0, 31.94, 919.3, 744.73]
[41778, 1542153261.43, 0.13, -7.99, -0.27, -19.53, -513.59, 10.92, 837.0, 3273.0, -481.0, 31.94, 919.3, 744.73]
[41779, 1542153261.44, 0.22, -7.99, -0.51, -9.8, -510.79, 11.41, 877.0, 3281.0, -499.0, 31.94, 919.3, 744.73]
[41780, 1542153261.45, 0.13, -7.99, -0.22, -13.44, -516.95, 12.74, 928.0, 3268.0, -509.0, 31.94, 919.3, 744.73]
[41781, 1542153261.46, 0.29, -7.99, -0.2, -10.5, -517.65, 13.02, 982.0, 3291.0, -477.0, 31.94, 919.3, 744.73]
[41782, 1542153261.47, 0.17, -7.99, -0.21, -4.97, -517.3, 15.4, 1053.0, 3289.0, -476.0, 31.94, 919.3, 744.73]
[41783, 1542153261.48, 0.4, -7.99, -0.41, -20.65, -531.51, 14.21, 1082.0, 3289.0, -436.0, 31.94, 919.3, 744.73]
[41784, 1542153261.49, 0.56, -7.99, -0.52, -8.26, -525.35, 11.13, 1082.0, 3301.0, -395.0, 31.94, 919.3, 744.73]
[41785, 1542153261.5, 0.37, -7.99, -0.53, -3.36, -520.45, 13.16, 1141.0, 3301.0, -345.0, 31.94, 919.3, 744.73]
[41786, 1542153261.51, 0.56, -7.99, -0.22, -5.11, -528.78, 10.43, 1193.0, 3313.0, -345.0, 31.94, 919.3, 744.73]
[41787, 1542153261.53, 0.37, -7.99, -0.46, -7.42, -528.57, 11.48, 1247.0, 3321.0, -339.0, 31.94, 919.3, 744.73]
[41788, 1542153261.54, 0.35, -7.99, -0.46, -17.5, -542.22, 10.43, 1263.0, 3297.0, -297.0, 31.94, 919.3, 744.73]
[41789, 1542153261.55, 0.32, -7.99, -0.41, -9.03, -535.85, 11.41, 1304.0, 3295.0, -246.0, 31.94, 919.3, 744.73]
[41790, 1542153261.56, 0.56, -7.99, -0.24, -12.39, -538.72, 11.27, 1318.0, 3311.0, -166.0, 31.94, 919.3, 744.73]
[41791, 1542153261.57, 0.65, -7.99, -0.02, -0.14, -531.37, 11.9, 1324.0, 3303.0, -134.0, 31.94, 919.3, 744.73]
[41792, 1542153261.58, 0.31, -7.99, -0.6, -15.19, -537.74, 11.13, 1324.0, 3293.0, -75.0, 31.94, 919.3, 744.73]
[41793, 1542153261.59, 0.26, -7.99, -0.31, -15.19, -537.11, 11.9, 1359.0, 3293.0, -75.0, 31.94, 919.3, 744.73]
[41794, 1542153261.6, 0.68, -7.99, -0.12, -7.84, -547.89, 12.11, 1364.0, 3315.0, 0.0, 31.94, 919.3, 744.73]
[41795, 1542153261.61, 0.19, -7.99, -0.62, -13.86, -546.56, 13.37, 1376.0, 3315.0, 65.0, 31.94, 919.3, 744.73]
[41796, 1542153261.62, 0.37, -7.99, -0.43, -13.86, -550.97, 12.74, 1363.0, 3318.0, 106.0, 31.94, 919.3, 744.73]
[41797, 1542153261.63, 0.48, -7.99, -0.43, -16.17, -556.08, 11.13, 1320.0, 3319.0, 161.0, 31.94, 919.3, 744.73]
[41798, 1542153261.64, 0.36, -7.99, -0.59, -21.77, -552.58, 12.67, 1300.0, 3285.0, 203.0, 31.94, 919.3, 744.73]
[41799, 1542153261.66, 0.5, -7.99, -0.34, -22.96, -558.39, 12.53, 1271.0, 3321.0, 306.0, 31.94, 919.3, 744.73]
[41800, 1542153261.67, 0.71, -7.99, -0.27, -8.61, -556.29, 12.39, 1271.0, 3321.0, 319.0, 31.94, 919.3, 744.73]
[41801, 1542153261.68, 0.58, -7.99, -0.64, -14.42, -550.69, 13.79, 1218.0, 3311.0, 319.0, 31.94, 919.3, 744.73]
[41802, 1542153261.69, 0.62, -7.99, -0.16, -18.48, -556.64, 15.89, 1204.0, 3309.0, 347.0, 31.94, 919.3, 744.73]
[41803, 1542153261.7, 0.97, -7.99, -0.28, -11.55, -550.9, 16.17, 1139.0, 3282.0, 399.0, 31.94, 919.3, 744.73]
[41804, 1542153261.71, 0.65, -7.99, -0.52, -20.72, -558.74, 21.07, 1072.0, 3311.0, 413.0, 31.94, 919.3, 744.73]
[41805, 1542153261.72, 1.18, -7.99, -0.24, -8.12, -551.74, 27.44, 1025.0, 3278.0, 457.0, 31.94, 919.3, 744.73]
[41806, 1542153261.73, 1.42, -7.99, -0.32, -7.28, -556.92, 37.17, 956.0, 3274.0, 469.0, 31.94, 919.3, 744.73]
[41807, 1542153261.74, 1.03, -7.99, -0.37, -13.86, -550.69, 39.2, 904.0, 3285.0, 499.0, 31.94, 919.3, 744.73]
[41808, 1542153261.75, 0.83, -7.99, -0.21, -26.6, -551.11, 34.3, 904.0, 3285.0, 487.0, 31.94, 919.3, 744.73]
[41809, 1542153261.76, 0.93, -7.99, -0.61, -19.25, -560.84, 30.17, 832.0, 3276.0, 487.0, 31.81, 894.92, 954.38]
[41810, 1542153261.78, 1.79, -7.99, -0.97, -19.39, -544.11, 31.71, 780.0, 3270.0, 517.0, 31.81, 894.92, 954.38]
[41811, 1542153261.79, 2.13, -7.99, -1.35, -12.04, -543.41, 39.27, 719.0, 3278.0, 493.0, 31.81, 894.92, 954.38]
[41812, 1542153261.8, 2.5, -7.99, -1.25, -1.05, -539.21, 46.48, 656.0, 3278.0, 439.0, 31.81, 894.92, 954.38]
[41813, 1542153261.81, 4.14, -7.99, -2.09, 1.47, -549.71, 67.62, 591.0, 3284.0, 436.0, 31.81, 894.92, 954.38, 'launch']
[41814, 1542153261.82, 7.99, -7.99, -3.9, 44.73, -539.28, 164.01, 516.0, 3260.0, 394.0, 31.81, 894.92, 954.38, 'launch']
[41815, 1542153261.83, 7.99, -7.99, -7.96, 105.98, -553.14, 283.43, 260.0, 3191.0, 335.0, 31.81, 894.92, 954.38, 'launch']
[41816, 1542153261.84, 7.99, -7.99, -7.99, 283.15, -908.81, 562.31, 424.0, 3191.0, 236.0, 31.81, 894.92, 954.38, 'launch']
[41817, 1542153261.85, 7.99, -3.27, -7.99, 1025.85, -893.76, 1186.78, 345.0, 3027.0, 236.0, 31.81, 894.92, 954.38, 'launch']
[41818, 1542153261.86, 7.99, 7.99, -7.99, 2087.19, -1420.86, 1982.68, 800.0, 2037.0, -135.0, 31.81, 894.92, 954.38, 'launch']
[41819, 1542153261.87, 7.99, 7.99, -7.99, 2185.75, -1161.02, 669.83, 1261.0, 891.0, -540.0, 31.81, 894.92, 954.38, 'launch']
[41820, 1542153261.89, 7.98, 7.87, -7.99, -173.95, 457.94, -108.22, 1113.0, 1134.0, -614.0, 31.81, 894.92, 954.38, 'launch']
[41821, 1542153261.9, 7.99, 7.99, -7.99, -2221.66, 969.36, -865.2, 721.0, 1703.0, -469.0, 31.81, 894.92, 954.38, 'launch']
[41822, 1542153261.91, 7.99, 7.99, -7.99, -2127.86, 564.13, -1269.17, 463.0, 2605.0, -227.0, 31.81, 894.92, 954.38, 'launch']
[41823, 1542153261.92, 4.83, 7.99, -7.56, -1896.72, 399.42, -1182.02, 552.0, 3006.0, 133.0, 31.81, 894.92, 954.38, 'launch']
[41824, 1542153261.93, 2.2, 7.99, 7.99, -1629.81, 1685.6, -1207.92, 808.0, 3029.0, 498.0, 31.81, 894.92, 954.38]
[41825, 1542153261.94, -7.99, 6.54, -7.74, -470.89, 2235.8, -1711.78, 831.0, 3029.0, 754.0, 31.81, 894.92, 954.38, 'launch']
[41826, 1542153261.95, -7.99, 7.99, 7.99, -360.85, 322.28, -478.38, 1135.0, 3102.0, 644.0, 31.81, 894.92, 954.38, 'launch']
[41827, 1542153261.96, -7.99, 7.99, 7.99, -283.43, 469.56, 617.54, 1265.0, 3029.0, 647.0, 31.81, 894.92, 954.38, 'launch']
[41828, 1542153261.97, -7.99, 7.99, 1.66, -602.21, 538.02, 1275.26, 1245.0, 2920.0, 697.0, 31.81, 894.92, 954.38, 'launch']
[41829, 1542153261.99, -7.99, 7.99, 7.99, -839.02, -348.53, 1613.22, 1027.0, 2835.0, 811.0, 31.81, 894.92, 954.38, 'launch']
[41830, 1542153262.0, 7.99, 7.99, 7.99, -307.86, -779.31, 1643.88, 704.0, 2699.0, 854.0, 31.81, 894.92, 954.38, 'launch']
[41831, 1542153262.01, 7.99, -4.73, 7.99, 485.87, -2292.64, 1153.11, 290.0, 2532.0, 578.0, 31.81, 894.92, 954.38, 'launch']
[41832, 1542153262.02, 7.99, 5.99, -7.99, 1000.23, -2292.43, 47.67, 205.0, 2438.0, 85.0, 31.81, 894.92, 954.38, 'launch']
[41833, 1542153262.03, 7.99, 7.36, -7.99, 951.44, 253.12, -1047.55, 205.0, 2694.0, -62.0, 31.81, 894.92, 954.38, 'launch']
[41834, 1542153262.04, 7.99, 7.99, -7.99, 956.9, 861.0, -1347.5, 329.0, 2560.0, -62.0, 31.81, 894.92, 954.38, 'launch']
[41835, 1542153262.05, 7.99, 7.99, -7.99, 911.19, 912.17, -1614.62, 465.0, 2862.0, -76.0, 31.81, 894.92, 954.38, 'launch']
[41836, 1542153262.06, -3.79, 7.53, -7.99, 783.09, 1172.5, -1649.48, 745.0, 3100.0, -165.0, 31.81, 894.92, 954.38]
[41837, 1542153262.07, 1.71, 7.99, -7.99, 664.72, 1341.97, -887.81, 1011.0, 3151.0, -233.0, 31.81, 894.92, 954.38]
[41838, 1542153262.09, 7.99, 7.85, -7.99, 651.91, 1443.82, -552.16, 1039.0, 2968.0, -354.0, 31.81, 894.92, 954.38, 'launch']
[41839, 1542153262.1, 7.99, -4.7, -7.99, 644.7, 870.17, -384.23, 934.0, 2940.0, -415.0, 31.81, 894.92, 954.38, 'launch']
[41840, 1542153262.11, 7.99, 7.9, -7.99, 628.18, 417.34, -207.41, 852.0, 2942.0, -548.0, 31.81, 894.92, 954.38, 'launch']
[41841, 1542153262.12, 7.95, 1.95, -7.99, 535.92, 16.94, -92.82, 852.0, 2881.0, -612.0, 31.81, 894.92, 954.38, 'launch']
[41842, 1542153262.13, 7.99, 6.84, -7.99, 325.29, -389.69, -56.98, 837.0, 2881.0, -659.0, 31.81, 894.92, 954.38, 'launch']
[41843, 1542153262.14, 7.99, -6.03, -6.21, 163.17, -660.17, -91.91, 924.0, 2789.0, -659.0, 31.81, 894.92, 954.38, 'launch']
[41844, 1542153262.15, 7.99, -0.61, -6.31, -22.54, -823.76, -79.45, 1050.0, 2678.0, -688.0, 31.81, 894.92, 954.38, 'launch']
[41845, 1542153262.16, -5.29, 6.65, -7.99, -174.86, -862.47, -38.22, 1247.0, 2810.0, -637.0, 31.81, 894.92, 954.38, 'launch']
[41846, 1542153262.17, -2.22, -1.62, -7.99, -112.0, -795.62, -2.8, 1374.0, 2812.0, -599.0, 31.81, 894.92, 954.38]
[41847, 1542153262.18, -7.99, -3.92, -7.99, -241.22, -671.79, 8.61, 1510.0, 2808.0, -486.0, 31.81, 894.92, 954.38, 'launch']
[41848, 1542153262.2, -3.99, -5.23, -7.99, -156.59, -552.86, 59.36, 1568.0, 2913.0, -438.0, 31.81, 894.92, 954.38]
[41849, 1542153262.21, -7.99, -6.19, -7.99, -113.19, -420.07, 46.48, 1584.0, 2884.0, -385.0, 31.81, 894.92, 954.38, 'launch']
[41850, 1542153262.22, -7.99, -3.11, -7.99, -33.81, -291.76, 79.03, 1584.0, 2884.0, -374.0, 31.81, 894.92, 954.38, 'launch']
[41851, 1542153262.23, -5.56, -5.3, -7.99, 19.11, -112.21, 176.75, 1639.0, 2911.0, -374.0, 31.81, 894.92, 954.38, 'launch']
[41852, 1542153262.24, -7.99, -7.65, -7.99, 117.39, 42.98, 321.65, 1621.0, 2937.0, -336.0, 31.81, 894.92, 954.38, 'launch']
[41853, 1542153262.25, -7.06, -2.82, -7.99, 119.42, 156.66, 498.54, 1531.0, 2984.0, -376.0, 31.81, 894.92, 954.38, 'launch']
[41854, 1542153262.26, -7.94, 1.24, -7.99, 95.69, 257.53, 615.3, 1403.0, 3049.0, -407.0, 31.81, 894.92, 954.38, 'launch']
[41855, 1542153262.27, -7.5, 1.89, -7.99, -56.98, 326.69, 722.4, 1265.0, 3067.0, -412.0, 31.81, 894.92, 954.38, 'launch']
[41856, 1542153262.28, 1.58, 1.81, -7.99, -147.7, 224.0, 523.88, 1064.0, 3108.0, -370.0, 31.81, 894.92, 954.38]
[41857, 1542153262.3, 1.7, -0.07, -7.99, -302.75, -54.74, 171.99, 1013.0, 3142.0, -331.0, 31.81, 894.92, 954.38]
[41858, 1542153262.31, -2.39, 0.49, -7.99, -372.47, -334.32, -210.07, 1013.0, 3135.0, -246.0, 31.81, 894.92, 954.38]
[41859, 1542153262.32, -6.2, 2.9, -7.99, -448.91, -457.17, -236.11, 1060.0, 3135.0, -246.0, 31.81, 894.92, 954.38, 'launch']
[41860, 1542153262.33, -0.31, 4.13, -7.99, -435.96, -370.51, -165.83, 1122.0, 3187.0, -179.0, 31.81, 894.92, 954.38]
[41861, 1542153262.34, -5.45, 3.67, -7.99, -421.4, -321.37, -164.92, 1195.0, 3177.0, -84.0, 31.81, 894.92, 954.38, 'launch']
[41862, 1542153262.35, -5.88, 4.07, -5.62, -438.34, -299.46, -161.21, 1231.0, 3157.0, 33.0, 31.81, 894.92, 954.38, 'launch']
[41863, 1542153262.36, -4.1, 4.0, -1.99, -390.46, -234.15, -150.92, 1247.0, 3185.0, 140.0, 31.81, 894.92, 954.38, 'launch']
[41864, 1542153262.37, -7.6, 2.23, -1.28, -432.04, -191.31, -148.54, 1285.0, 3120.0, 258.0, 31.81, 894.92, 954.38, 'launch']
[41865, 1542153262.38, -7.13, 4.42, 1.19, -359.73, -126.35, -147.42, 1279.0, 3126.0, 302.0, 31.81, 894.92, 954.38, 'launch']
[41866, 1542153262.39, -7.79, 3.22, 1.92, -407.61, -55.65, -151.06, 1313.0, 3057.0, 397.0, 31.81, 894.92, 954.38, 'launch']
[41867, 1542153262.41, -7.95, 2.52, 4.67, -371.14, 34.3, -146.79, 1313.0, 3057.0, 443.0, 31.81, 894.92, 954.38, 'launch']
[41868, 1542153262.42, -7.99, 2.7, 4.68, -401.45, 74.34, -143.85, 1348.0, 2994.0, 443.0, 31.81, 894.92, 954.38, 'launch']
[41869, 1542153262.43, -7.99, 4.23, 6.57, -467.39, 94.29, -117.53, 1441.0, 2901.0, 518.0, 31.81, 894.92, 954.38, 'launch']
[41870, 1542153262.44, -7.99, 3.48, 7.92, -525.98, 143.85, -68.25, 1410.0, 2882.0, 621.0, 31.81, 894.92, 954.38, 'launch']
[41871, 1542153262.45, -7.99, -0.09, 7.99, -454.72, 306.11, -122.64, 1437.0, 2777.0, 631.0, 31.81, 894.92, 954.38, 'launch']
[41872, 1542153262.46, -7.99, 1.08, 7.99, -464.59, 210.56, 68.95, 1482.0, 2675.0, 700.0, 31.81, 894.92, 954.38, 'launch']
[41873, 1542153262.47, -7.99, 2.03, 7.99, -507.08, 308.98, 159.6, 1508.0, 2614.0, 740.0, 31.81, 894.92, 954.38, 'launch']
[41874, 1542153262.48, -7.99, -1.26, 7.99, -499.45, 372.05, 224.56, 1520.0, 2515.0, 755.0, 31.81, 894.92, 954.38, 'launch']
[41875, 1542153262.49, -7.99, -2.38, 7.99, -584.22, 476.49, 234.15, 1776.0, 2470.0, 725.0, 31.81, 894.92, 954.38, 'launch']
[41876, 1542153262.51, -7.99, 2.72, 7.99, -474.46, 643.3, 133.28, 1611.0, 2470.0, 677.0, 31.81, 894.92, 954.38, 'launch']
[41877, 1542153262.52, -7.99, -1.93, 7.99, -408.17, 781.27, 35.84, 1664.0, 2413.0, 677.0, 31.81, 894.92, 954.38, 'launch']
[41878, 1542153262.53, -7.99, -0.17, 4.78, -373.94, 839.23, -56.0, 1779.0, 2329.0, 582.0, 31.81, 894.92, 954.38, 'launch']
[41879, 1542153262.54, -7.99, -3.41, 5.12, -284.34, 870.8, -183.05, 1903.0, 2283.0, 452.0, 31.81, 894.92, 954.38, 'launch']
[41880, 1542153262.55, -7.99, -2.04, -0.65, -202.93, 833.77, -314.79, 1968.0, 2206.0, 309.0, 31.81, 894.92, 954.38, 'launch']
[41881, 1542153262.56, -7.99, 2.86, -2.99, -203.98, 843.01, -354.27, 2022.0, 2129.0, 132.0, 31.81, 894.92, 954.38, 'launch']
[41882, 1542153262.57, -7.99, -6.6, 6.81, -93.8, 787.71, -415.38, 2001.0, 2007.0, -60.0, 31.81, 894.92, 954.38, 'launch']
[41883, 1542153262.58, -7.99, 0.21, -7.99, 12.53, 713.86, -419.09, 2001.0, 1857.0, -212.0, 31.81, 894.92, 954.38, 'launch']
[41884, 1542153262.59, -7.99, -0.7, -0.81, 154.21, 667.24, -382.83, 2001.0, 1763.0, -351.0, 31.81, 894.92, 954.38, 'launch']
[41885, 1542153262.61, -7.99, -0.44, -4.22, 220.85, 577.01, -283.22, 1942.0, 1763.0, -351.0, 31.81, 894.92, 954.38, 'launch']
[41886, 1542153262.62, -7.99, 0.09, 2.1, 292.32, 505.26, -223.16, 1879.0, 1656.0, -419.0, 31.81, 894.92, 954.38, 'launch']
[41887, 1542153262.63, -7.99, -0.26, -3.15, 263.69, 429.73, -152.6, 1822.0, 1599.0, -525.0, 31.81, 894.92, 954.38, 'launch']
[41888, 1542153262.64, -7.99, 1.38, -3.12, 282.1, 345.59, -99.75, 1755.0, 1509.0, -553.0, 31.81, 894.92, 954.38, 'launch']
[41889, 1542153262.65, -7.41, 1.43, -3.24, 248.43, 244.3, -74.27, 1716.0, 1416.0, -567.0, 31.81, 894.92, 954.38, 'launch']
[41890, 1542153262.66, -7.25, 1.03, -3.62, 189.28, 164.29, -52.71, 1688.0, 1386.0, -567.0, 31.81, 894.92, 954.38, 'launch']
[41891, 1542153262.67, -6.44, 0.03, -3.16, 140.56, 83.16, 17.01, 1654.0, 1370.0, -587.0, 31.81, 894.92, 954.38, 'launch']
[41892, 1542153262.68, -7.83, 0.05, -2.35, 99.89, 30.03, 21.28, 1674.0, 1354.0, -557.0, 31.81, 894.92, 954.38, 'launch']
[41893, 1542153262.69, -5.76, -0.93, -3.12, 28.7, -9.73, 60.13, 1674.0, 1354.0, -558.0, 31.81, 894.92, 954.38, 'launch']
[41894, 1542153262.71, -6.42, 0.72, -3.44, -44.66, -24.78, 71.33, 1670.0, 1378.0, -558.0, 31.81, 894.92, 954.38, 'launch']
[41895, 1542153262.72, -5.39, 0.29, -3.62, -65.94, -21.7, 106.33, 1687.0, 1376.0, -578.0, 31.81, 894.92, 954.38, 'launch']
[41896, 1542153262.73, -7.08, 0.97, -3.12, -111.16, 12.53, 95.27, 1685.0, 1415.0, -571.0, 31.81, 894.92, 954.38, 'launch']
[41897, 1542153262.74, -6.98, 1.51, -1.64, -115.5, 24.01, 99.68, 1711.0, 1457.0, -569.0, 31.56, 800.29, 1826.09, 'launch']
[41898, 1542153262.75, -6.82, 1.58, -3.99, -148.26, 40.95, 87.92, 1712.0, 1490.0, -572.0, 31.56, 800.29, 1826.09, 'launch']
[41899, 1542153262.76, -6.27, 1.03, -3.15, -155.82, 58.87, 68.18, 1714.0, 1541.0, -617.0, 31.56, 800.29, 1826.09, 'launch']
[41900, 1542153262.77, -7.99, 1.53, -4.45, -173.32, 79.45, 33.39, 1689.0, 1582.0, -657.0, 31.56, 800.29, 1826.09, 'launch']
[41901, 1542153262.78, -7.2, -0.18, -3.63, -184.8, 93.59, 14.98, 1681.0, 1624.0, -680.0, 31.56, 800.29, 1826.09, 'launch']
[41902, 1542153262.79, -7.95, -1.17, -4.2, -192.78, 100.59, 0.77, 1681.0, 1624.0, -700.0, 31.56, 800.29, 1826.09, 'launch']
[41903, 1542153262.81, -7.99, -1.15, -5.34, -202.79, 100.17, -15.47, 1668.0, 1642.0, -700.0, 31.56, 800.29, 1826.09, 'launch']
[41904, 1542153262.82, -7.99, -0.52, -5.16, -231.14, 99.68, -33.18, 1658.0, 1703.0, -719.0, 31.56, 800.29, 1826.09, 'launch']
[41905, 1542153262.83, -5.6, -1.77, -6.06, -232.26, 88.55, -54.81, 1650.0, 1733.0, -754.0, 31.56, 800.29, 1826.09, 'launch']
[41906, 1542153262.84, -6.77, -1.59, -3.96, -220.29, 75.39, -78.68, 1601.0, 1802.0, -764.0, 31.56, 800.29, 1826.09, 'launch']
[41907, 1542153262.85, -3.05, -0.36, -7.99, -238.35, 62.3, -70.42, 1585.0, 1823.0, -781.0, 31.56, 800.29, 1826.09]
[41908, 1542153262.86, -3.13, 1.51, -7.55, -160.09, 44.59, -59.78, 1593.0, 1843.0, -799.0, 31.56, 800.29, 1826.09]
[41909, 1542153262.87, -2.03, -4.8, -5.99, -139.44, 17.85, -29.54, 1583.0, 1898.0, -802.0, 31.56, 800.29, 1826.09]
[41910, 1542153262.88, -7.5, 3.74, -2.38, -116.48, 21.49, -94.43, 1583.0, 1898.0, -789.0, 31.56, 800.29, 1826.09, 'launch']
[41911, 1542153262.89, -2.83, -6.87, -4.68, -114.52, 4.83, -80.22, 1584.0, 1913.0, -789.0, 31.56, 800.29, 1826.09]
[41912, 1542153262.9, -7.99, 4.01, -7.13, -40.67, 17.78, -143.92, 1590.0, 1919.0, -769.0, 31.56, 800.29, 1826.09, 'launch']
[41913, 1542153262.92, -0.36, -3.87, -7.99, -106.75, -10.01, -94.64, 1584.0, 1894.0, -776.0, 31.56, 800.29, 1826.09]
[41914, 1542153262.93, -2.6, 1.23, -7.99, 60.55, -22.33, -66.78, 1563.0, 1866.0, -809.0, 31.56, 800.29, 1826.09]
[41915, 1542153262.94, -1.73, -2.83, -7.99, 120.19, -40.11, -23.73, 1596.0, 1837.0, -790.0, 31.56, 800.29, 1826.09]
[41916, 1542153262.95, -0.14, 0.47, -6.31, 244.16, -53.2, 1.47, 1606.0, 1779.0, -771.0, 31.56, 800.29, 1826.09]
[41917, 1542153262.96, -5.59, -1.8, -2.72, 319.2, -68.11, 15.12, 1604.0, 1736.0, -743.0, 31.56, 800.29, 1826.09, 'launch']
[41918, 1542153262.97, -6.43, -0.76, -3.35, 279.79, -60.62, -13.16, 1604.0, 1736.0, -781.0, 31.56, 800.29, 1826.09, 'launch']
[41919, 1542153262.98, -7.99, 0.73, -2.1, 246.61, -46.97, -89.74, 1607.0, 1684.0, -781.0, 31.56, 800.29, 1826.09, 'launch']
[41920, 1542153262.99, -6.7, 0.1, -1.88, 181.23, -40.11, -144.13, 1603.0, 1605.0, -739.0, 31.56, 800.29, 1826.09, 'launch']
[41921, 1542153263.0, -6.02, -0.24, -3.86, 170.94, -28.35, -157.64, 1608.0, 1537.0, -695.0, 31.56, 800.29, 1826.09, 'launch']
[41922, 1542153263.01, -4.38, -0.36, -1.93, 158.48, -14.49, -171.01, 1581.0, 1486.0, -683.0, 31.56, 800.29, 1826.09, 'launch']
[41923, 1542153263.03, -4.39, 0.17, -2.71, 131.32, -6.3, -196.28, 1590.0, 1430.0, -669.0, 31.56, 800.29, 1826.09, 'launch']
[41924, 1542153263.04, -4.62, -0.28, -2.51, 105.0, 3.78, -186.69, 1613.0, 1316.0, -716.0, 31.56, 800.29, 1826.09, 'launch']
[41925, 1542153263.05, -4.83, 0.05, -1.62, 91.14, 10.71, -192.29, 1551.0, 1330.0, -631.0, 31.56, 800.29, 1826.09, 'launch']
[41926, 1542153263.06, -3.95, -0.07, -2.53, 52.01, 17.43, -200.41, 1514.0, 1305.0, -644.0, 31.56, 800.29, 1826.09]
[41927, 1542153263.07, -3.52, 0.35, -2.35, 32.69, 14.84, -199.15, 1514.0, 1305.0, -621.0, 31.56, 800.29, 1826.09]
[41928, 1542153263.08, -3.43, -0.16, -2.28, -8.05, 10.5, -199.08, 1491.0, 1254.0, -621.0, 31.56, 800.29, 1826.09]
[41929, 1542153263.09, -3.21, 0.1, -1.83, -27.86, 11.9, -189.77, 1459.0, 1213.0, -622.0, 31.56, 800.29, 1826.09]
[41930, 1542153263.1, -2.92, -0.58, -1.78, -55.79, 5.18, -177.94, 1445.0, 1232.0, -644.0, 31.56, 800.29, 1826.09]
[41931, 1542153263.11, -2.72, -0.59, -2.54, -98.84, -3.5, -164.85, 1404.0, 1217.0, -625.0, 31.56, 800.29, 1826.09]
[41932, 1542153263.12, -2.5, 0.02, -1.81, -108.22, -2.17, -142.45, 1376.0, 1212.0, -668.0, 31.56, 800.29, 1826.09]
[41933, 1542153263.13, -3.05, -0.73, -2.4, -147.63, -6.16, -124.18, 1382.0, 1232.0, -672.0, 31.56, 800.29, 1826.09]
[41934, 1542153263.15, -2.94, 0.2, -3.11, -180.04, -12.6, -118.86, 1382.0, 1258.0, -691.0, 31.56, 800.29, 1826.09]
[41935, 1542153263.16, -2.5, -0.42, -1.76, -191.8, -24.08, -106.75, 1365.0, 1258.0, -691.0, 31.56, 800.29, 1826.09]
[41936, 1542153263.17, -2.42, 0.13, -2.31, -217.14, -35.77, -102.83, 1363.0, 1282.0, -720.0, 31.56, 800.29, 1826.09]
[41937, 1542153263.18, -2.89, -0.16, -2.62, -243.81, -45.57, -107.8, 1363.0, 1318.0, -754.0, 31.56, 800.29, 1826.09]
[41938, 1542153263.19, -3.77, 0.32, -2.53, -255.57, -53.9, -110.95, 1353.0, 1355.0, -743.0, 31.56, 800.29, 1826.09]
[41939, 1542153263.2, -3.39, 0.35, -1.67, -262.01, -57.4, -114.24, 1360.0, 1429.0, -805.0, 31.56, 800.29, 1826.09]
[41940, 1542153263.21, -3.25, 0.59, -2.25, -275.31, -61.04, -124.67, 1382.0, 1473.0, -799.0, 31.56, 800.29, 1826.09]
[41941, 1542153263.22, -3.34, 0.8, -2.1, -280.7, -66.85, -135.87, 1376.0, 1510.0, -819.0, 31.56, 800.29, 1826.09]
[41942, 1542153263.23, -4.26, 1.08, -2.81, -275.17, -59.5, -140.49, 1376.0, 1766.0, -818.0, 31.56, 800.29, 1826.09, 'launch']
[41943, 1542153263.24, -4.1, 0.4, -2.64, -275.73, -55.58, -152.32, 1376.0, 1571.0, -818.0, 31.56, 800.29, 1826.09, 'launch']
[41944, 1542153263.26, -4.77, 0.54, -2.11, -285.74, -45.99, -162.12, 1386.0, 1650.0, -870.0, 31.56, 800.29, 1826.09, 'launch']
[41945, 1542153263.27, -4.08, 0.69, -2.89, -303.38, -32.41, -165.06, 1390.0, 1699.0, -892.0, 31.56, 800.29, 1826.09, 'launch']
[41946, 1542153263.28, -4.29, 1.32, -2.09, -293.58, -22.82, -179.69, 1390.0, 1776.0, -852.0, 31.56, 800.29, 1826.09, 'launch']
[41947, 1542153263.29, -4.66, 0.21, -2.97, -296.52, -15.05, -192.85, 1415.0, 1813.0, -859.0, 31.56, 800.29, 1826.09, 'launch']
[41948, 1542153263.3, -4.25, 0.92, -3.1, -307.79, 3.57, -201.11, 1394.0, 1881.0, -895.0, 31.56, 800.29, 1826.09, 'launch']
[41949, 1542153263.31, -4.94, 0.52, -4.4, -297.36, 18.2, -204.68, 1382.0, 1956.0, -871.0, 31.56, 800.29, 1826.09, 'launch']
[41950, 1542153263.32, -4.05, -0.4, -1.89, -296.03, 26.04, -206.92, 1351.0, 1979.0, -887.0, 31.56, 800.29, 1826.09, 'launch']
[41951, 1542153263.33, -5.54, 0.9, -2.24, -283.08, 37.87, -226.52, 1351.0, 1979.0, -907.0, 31.56, 800.29, 1826.09, 'launch']
[41952, 1542153263.34, -5.28, 0.65, -2.31, -274.68, 65.52, -247.59, 1384.0, 2042.0, -907.0, 31.56, 800.29, 1826.09, 'launch']
[41953, 1542153263.36, -3.58, -1.34, -2.97, -284.69, 61.81, -250.32, 1380.0, 2085.0, -897.0, 31.56, 800.29, 1826.09]
[41954, 1542153263.37, -3.46, 1.29, -0.96, -244.23, 79.31, -259.77, 1382.0, 2170.0, -890.0, 31.56, 800.29, 1826.09]
[41955, 1542153263.38, -4.41, -0.42, -2.66, -235.34, 90.23, -274.4, 1370.0, 2188.0, -882.0, 31.56, 800.29, 1826.09, 'launch']
[41956, 1542153263.39, -3.88, 1.09, -2.56, -247.66, 108.5, -298.83, 1354.0, 2195.0, -871.0, 31.56, 800.29, 1826.09]
[41957, 1542153263.4, -3.76, -0.9, -1.75, -210.07, 114.87, -317.17, 1354.0, 2257.0, -867.0, 31.56, 800.29, 1826.09]
[41958, 1542153263.41, -4.44, 0.46, -1.97, -219.94, 128.73, -340.06, 1350.0, 2268.0, -876.0, 31.56, 800.29, 1826.09, 'launch']
[41959, 1542153263.42, -3.47, 0.55, -4.29, -171.08, 135.38, -373.66, 1350.0, 2268.0, -869.0, 31.56, 800.29, 1826.09]
[41960, 1542153263.43, -2.3, 2.02, -4.37, -192.43, 131.67, -364.35, 1330.0, 2292.0, -869.0, 31.56, 800.29, 1826.09]
[41961, 1542153263.44, -3.32, 0.32, -2.61, -145.04, 116.9, -376.88, 1330.0, 2311.0, -863.0, 31.56, 800.29, 1826.09]
[41962, 1542153263.45, -2.72, 0.77, -3.24, -168.0, 104.65, -391.02, 1344.0, 2298.0, -894.0, 31.56, 800.29, 1826.09]
[41963, 1542153263.46, -1.88, 1.08, -3.52, -141.89, 87.01, -405.79, 1338.0, 2300.0, -869.0, 31.56, 800.29, 1826.09]
[41964, 1542153263.48, -2.83, 1.17, -3.5, -140.07, 75.81, -407.61, 1344.0, 2282.0, -871.0, 31.56, 800.29, 1826.09]
[41965, 1542153263.49, -2.55, 0.7, -2.45, -121.03, 67.9, -429.94, 1362.0, 2294.0, -871.0, 31.56, 800.29, 1826.09]
[41966, 1542153263.5, -2.42, 0.63, -2.61, -117.39, 56.56, -416.78, 1387.0, 2274.0, -870.0, 31.56, 800.29, 1826.09]
[41967, 1542153263.51, -3.28, 1.93, -3.49, -117.18, 38.71, -417.9, 1387.0, 2274.0, -877.0, 31.56, 800.29, 1826.09]
[41968, 1542153263.52, -2.18, 1.01, -2.84, -123.76, 24.78, -414.26, 1399.0, 2272.0, -877.0, 31.56, 800.29, 1826.09]
[41969, 1542153263.53, -1.87, 0.97, -2.33, -124.04, 12.04, -406.63, 1413.0, 2265.0, -837.0, 31.56, 800.29, 1826.09]
[41970, 1542153263.54, -2.25, 0.95, -2.22, -132.3, 3.22, -393.05, 1443.0, 2236.0, -829.0, 31.56, 800.29, 1826.09]
[41971, 1542153263.55, -2.04, 0.96, -2.31, -150.64, -3.85, -381.43, 1443.0, 2222.0, -832.0, 31.56, 800.29, 1826.09]
[41972, 1542153263.56, -1.59, 0.9, -2.47, -163.45, -13.51, -371.84, 1466.0, 2237.0, -829.0, 31.56, 800.29, 1826.09]
[41973, 1542153263.57, -1.67, 0.55, -2.01, -182.28, -26.39, -360.78, 1480.0, 2234.0, -839.0, 31.56, 800.29, 1826.09]
[41974, 1542153263.58, -1.86, 0.59, -2.31, -202.72, -41.51, -342.65, 1480.0, 2231.0, -785.0, 31.56, 800.29, 1826.09]
[41975, 1542153263.6, -1.44, 0.43, -1.95, -212.03, -59.5, -319.55, 1524.0, 2231.0, -785.0, 31.56, 800.29, 1826.09]
[41976, 1542153263.61, -1.59, -0.01, -2.46, -245.14, -85.33, -299.46, 1574.0, 2240.0, -811.0, 31.56, 800.29, 1826.09]
[41977, 1542153263.62, -1.61, 0.78, -2.6, -261.59, -95.69, -274.75, 1591.0, 2249.0, -739.0, 31.56, 800.29, 1826.09]
[41978, 1542153263.63, -1.48, 0.74, -2.67, -280.35, -113.82, -256.9, 1609.0, 2253.0, -779.0, 31.56, 800.29, 1826.09]
[41979, 1542153263.64, -1.48, 0.86, -2.93, -303.31, -134.82, -252.77, 1646.0, 2277.0, -717.0, 31.56, 800.29, 1826.09]
[41980, 1542153263.65, -1.84, 0.63, -2.37, -326.55, -154.98, -243.46, 1756.0, 2247.0, -739.0, 31.56, 800.29, 1826.09]
[41981, 1542153263.66, -1.7, 0.92, -2.52, -352.38, -175.42, -233.1, 1735.0, 2324.0, -626.0, 31.56, 800.29, 1826.09]
[41982, 1542153263.67, -2.17, 1.14, -2.73, -391.3, -192.92, -198.8, 1735.0, 2324.0, -577.0, 31.56, 800.29, 1826.09]
[41983, 1542153263.68, -2.18, 1.1, -2.66, -400.89, -202.44, -193.97, 1774.0, 2353.0, -577.0, 31.56, 800.29, 1826.09]
[41984, 1542153263.69, -2.46, 1.14, -2.44, -418.81, -213.78, -159.88, 1837.0, 2348.0, -508.0, 31.56, 838.53, 1461.99]
[41985, 1542153263.7, -2.5, 1.76, -2.72, -441.49, -221.27, -129.22, 1865.0, 2375.0, -412.0, 31.38, 838.53, 1461.99]
[41986, 1542153263.72, -2.74, 1.51, -2.16, -467.95, -228.55, -99.54, 1866.0, 2421.0, -376.0, 31.38, 838.53, 1461.99]
[41987, 1542153263.73, -2.68, 1.42, -2.13, -466.97, -229.6, -51.94, 1891.0, 2461.0, -288.0, 31.38, 838.53, 1461.99]
[41988, 1542153263.74, -2.83, 2.07, -1.73, -476.07, -224.07, 11.34, 1895.0, 2476.0, -209.0, 31.38, 838.53, 1461.99]
[41989, 1542153263.75, -2.75, 1.52, -1.77, -481.32, -210.63, 38.64, 1895.0, 2509.0, -102.0, 31.38, 838.53, 1461.99]
[41990, 1542153263.76, -2.92, 1.67, -1.49, -475.93, -198.8, 74.55, 1920.0, 2509.0, -102.0, 31.38, 838.53, 1461.99]
[41991, 1542153263.77, -3.43, 1.38, -1.43, -459.97, -194.11, 102.9, 1907.0, 2553.0, -14.0, 31.38, 838.53, 1461.99]
[41992, 1542153263.78, -2.99, 0.92, -1.72, -478.52, -196.98, 127.26, 1902.0, 2554.0, 88.0, 31.38, 838.53, 1461.99]
[41993, 1542153263.79, -3.45, 1.53, -0.63, -479.01, -201.32, 143.85, 1879.0, 2557.0, 171.0, 31.38, 838.53, 1461.99]
[41994, 1542153263.8, -3.83, 0.47, -0.41, -427.14, -206.22, 163.17, 1846.0, 2597.0, 253.0, 31.38, 838.53, 1461.99]
[41995, 1542153263.81, -3.3, 1.76, -0.19, -458.5, -213.15, 184.73, 1832.0, 2595.0, 360.0, 31.38, 838.53, 1461.99]
[41996, 1542153263.82, -3.15, 0.93, 2.08, -427.56, -224.49, 210.56, 1785.0, 2575.0, 421.0, 31.38, 838.53, 1461.99]
[41997, 1542153263.83, -3.35, 0.45, -0.06, -444.36, -225.89, 235.13, 1785.0, 2562.0, 484.0, 31.38, 838.53, 1461.99]
[41998, 1542153263.85, -2.35, 2.01, 2.77, -368.06, -212.66, 253.75, 1727.0, 2562.0, 484.0, 31.38, 838.53, 1461.99]
[41999, 1542153263.86, -3.1, 0.29, -0.78, -368.97, -205.24, 264.67, 1663.0, 2576.0, 566.0, 31.38, 838.53, 1461.99]
[42000, 1542153263.87, -3.03, 1.31, 1.74, -295.05, -199.15, 276.57, 1616.0, 2558.0, 638.0, 31.38, 838.53, 1461.99]
[42001, 1542153263.88, -0.37, 0.41, 0.42, -317.31, -188.23, 295.4, 1589.0, 2544.0, 703.0, 31.38, 838.53, 1461.99]
[42002, 1542153263.89, -1.81, 2.45, 2.49, -241.29, -177.45, 308.21, 1507.0, 2548.0, 764.0, 31.38, 838.53, 1461.99]
[42003, 1542153263.9, -3.39, 0.74, -0.03, -251.02, -173.32, 326.41, 1448.0, 2518.0, 778.0, 31.38, 838.53, 1461.99]
[42004, 1542153263.91, -3.92, 2.08, 1.16, -212.31, -169.4, 345.17, 1390.0, 2495.0, 830.0, 31.38, 838.53, 1461.99]
[42005, 1542153263.92, -2.44, 2.02, 1.12, -187.74, -168.49, 361.27, 1390.0, 2495.0, 863.0, 31.38, 838.53, 1461.99]
[42006, 1542153263.93, -1.64, 1.35, 1.83, -152.32, -153.02, 380.94, 1315.0, 2490.0, 863.0, 31.38, 838.53, 1461.99]
[42007, 1542153263.94, -2.94, 2.97, 0.9, -131.04, -110.11, 388.15, 1234.0, 2481.0, 906.0, 31.38, 838.53, 1461.99]
[42008, 1542153263.95, -1.95, 2.87, 2.09, -87.22, -106.61, 389.41, 1185.0, 2467.0, 903.0, 31.38, 838.53, 1461.99]
[42009, 1542153263.97, -2.01, 1.5, 1.41, -23.03, -120.26, 391.65, 1130.0, 2478.0, 918.0, 31.38, 838.53, 1461.99]
[42010, 1542153263.98, -1.7, 1.54, 1.81, 12.53, -129.22, 406.56, 1076.0, 2483.0, 937.0, 31.38, 838.53, 1461.99]
[42011, 1542153263.99, -1.47, 1.41, 1.95, 35.21, -138.18, 428.4, 1003.0, 2491.0, 912.0, 31.38, 838.53, 1461.99]
[42012, 1542153264.0, -0.64, 1.33, 1.99, 72.8, -137.27, 445.2, 1003.0, 2485.0, 886.0, 31.38, 838.53, 1461.99]
[42013, 1542153264.01, -0.25, 1.74, 1.7, 112.7, -134.82, 458.5, 942.0, 2485.0, 897.0, 31.38, 838.53, 1461.99]
[42014, 1542153264.02, 0.51, 1.75, 1.19, 144.2, -126.07, 459.69, 869.0, 2502.0, 897.0, 31.38, 838.53, 1461.99]
[42015, 1542153264.03, 1.16, 4.96, 1.7, 206.71, -107.03, 426.02, 828.0, 2522.0, 880.0, 31.38, 838.53, 1461.99]
[42016, 1542153264.04, 2.1, 6.17, 1.18, 274.61, -56.0, 305.27, 739.0, 2548.0, 854.0, 31.38, 838.53, 1461.99]
[42017, 1542153264.05, 1.68, 1.91, 0.85, 297.64, -20.51, 253.68, 694.0, 2578.0, 817.0, 31.38, 838.53, 1461.99]
[42018, 1542153264.06, 1.73, 2.64, 1.59, 316.05, 5.25, 195.58, 690.0, 2605.0, 755.0, 31.38, 838.53, 1461.99]
[42019, 1542153264.07, 1.26, 3.66, 0.51, 307.93, 41.37, 133.63, 714.0, 2690.0, 716.0, 31.38, 838.53, 1461.99]
[42020, 1542153264.09, 1.34, 6.01, 0.93, 336.7, 82.39, 70.35, 714.0, 2747.0, 697.0, 31.38, 838.53, 1461.99]
[42021, 1542153264.1, 1.74, 6.98, 0.29, 381.43, 126.91, -29.12, 659.0, 2747.0, 697.0, 31.38, 838.53, 1461.99]
[42022, 1542153264.11, 3.92, 7.99, 2.2, 433.58, 186.62, -212.66, 702.0, 2822.0, 630.0, 31.38, 838.53, 1461.99]
[42023, 1542153264.12, 3.43, 7.99, 0.94, 501.41, 244.93, -344.61, 743.0, 2935.0, 590.0, 31.38, 838.53, 1461.99]
[42024, 1542153264.13, 0.73, 7.99, -1.37, 511.84, 290.5, -428.68, 893.0, 3033.0, 500.0, 31.38, 838.53, 1461.99]
[42025, 1542153264.14, 4.1, 7.99, 0.17, 571.76, 331.17, -435.26, 968.0, 3145.0, 398.0, 31.38, 838.53, 1461.99, 'launch']
[42026, 1542153264.15, 5.82, 7.99, -4.21, 573.72, 203.07, -396.2, 1090.0, 3251.0, 282.0, 31.38, 838.53, 1461.99, 'launch']
[42027, 1542153264.16, 0.24, 7.99, -1.44, 631.54, 216.58, -363.93, 1204.0, 3194.0, 65.0, 31.38, 838.53, 1461.99]
[42028, 1542153264.17, -0.08, 7.99, -1.17, 494.2, 270.27, -341.74, 1204.0, 3241.0, 37.0, 31.38, 838.53, 1461.99]
[42029, 1542153264.18, 0.05, 7.99, -0.42, 366.1, 329.28, -305.06, 1255.0, 3241.0, 37.0, 31.38, 838.53, 1461.99]
[42030, 1542153264.19, -0.29, 7.99, -0.59, 226.17, 379.61, -278.95, 1303.0, 3225.0, -57.0, 31.38, 838.53, 1461.99]
[42031, 1542153264.21, 0.21, 7.99, -1.02, 80.78, 433.93, -253.4, 1366.0, 3183.0, -161.0, 31.38, 838.53, 1461.99]
[42032, 1542153264.22, 0.32, 7.99, -1.34, 16.24, 467.53, -228.76, 1388.0, 3161.0, -201.0, 31.38, 838.53, 1461.99]
[42033, 1542153264.23, -1.02, 7.99, -2.61, 0.98, 479.85, -200.34, 1445.0, 3103.0, -213.0, 31.38, 838.53, 1461.99]
[42034, 1542153264.24, -1.97, 7.99, -1.09, 11.13, 488.11, -192.85, 1429.0, 3129.0, -265.0, 31.38, 838.53, 1461.99]
[42035, 1542153264.25, -0.71, 5.3, -0.63, 21.77, 500.43, -179.06, 1401.0, 3119.0, -320.0, 31.38, 838.53, 1461.99]
[42036, 1542153264.26, -0.81, 4.78, -0.61, 32.55, 505.54, -164.01, 1401.0, 3119.0, -429.0, 31.38, 838.53, 1461.99]
[42037, 1542153264.27, -1.2, 7.87, -0.72, 43.54, 513.94, -140.49, 1435.0, 3023.0, -429.0, 31.38, 838.53, 1461.99]
[42038, 1542153264.28, -1.01, 6.35, -0.65, 45.22, 522.34, -106.75, 1378.0, 3027.0, -402.0, 31.38, 838.53, 1461.99]
[42039, 1542153264.29, -1.22, 4.87, -0.55, 40.74, 508.69, -77.98, 1364.0, 3053.0, -475.0, 31.38, 838.53, 1461.99]
[42040, 1542153264.3, -0.61, 4.28, -0.65, 34.23, 491.19, -64.19, 1317.0, 3039.0, -518.0, 31.38, 838.53, 1461.99]
[42041, 1542153264.31, -0.96, 5.53, -0.73, 28.35, 476.42, -51.17, 1283.0, 3018.0, -531.0, 31.38, 838.53, 1461.99]
[42042, 1542153264.33, -0.7, 4.05, -0.39, 19.74, 463.68, -39.76, 1203.0, 3025.0, -549.0, 31.38, 838.53, 1461.99]
[42043, 1542153264.34, -0.68, 4.07, -0.69, 8.4, 449.89, -32.34, 1203.0, 3015.0, -589.0, 31.38, 838.53, 1461.99]
[42044, 1542153264.35, -0.62, 3.62, -0.62, -2.52, 437.78, -25.62, 1171.0, 3015.0, -589.0, 31.38, 838.53, 1461.99]
[42045, 1542153264.36, -0.47, 3.32, -0.55, -12.6, 426.79, -20.86, 1110.0, 3017.0, -543.0, 31.38, 838.53, 1461.99]
[42046, 1542153264.37, -0.4, 3.1, -0.45, -20.72, 415.24, -18.97, 1064.0, 3011.0, -580.0, 31.38, 838.53, 1461.99]
[42047, 1542153264.38, -0.29, 1.89, -0.39, -29.4, 407.12, -17.71, 1007.0, 3030.0, -571.0, 31.38, 838.53, 1461.99]
[42048, 1542153264.39, -0.17, 1.19, -0.24, -31.92, 401.52, -17.99, 940.0, 3023.0, -556.0, 31.38, 838.53, 1461.99]
[42049, 1542153264.4, -0.2, 0.8, -0.22, -35.28, 397.18, -20.02, 887.0, 3021.0, -544.0, 31.38, 838.53, 1461.99]
[42050, 1542153264.41, -0.17, 0.69, -0.25, -36.19, 394.8, -22.12, 859.0, 3021.0, -545.0, 31.38, 838.53, 1461.99]
[42051, 1542153264.42, -0.1, 0.54, -0.25, -36.68, 392.77, -24.71, 859.0, 3021.0, -505.0, 31.38, 838.53, 1461.99]
[42052, 1542153264.43, -0.16, 0.5, -0.21, -35.21, 391.65, -28.07, 818.0, 3030.0, -505.0, 31.38, 838.53, 1461.99]
[42053, 1542153264.45, -0.04, 0.35, -0.2, -32.34, 391.72, -30.31, 761.0, 3052.0, -484.0, 31.38, 838.53, 1461.99]
[42054, 1542153264.46, -0.02, 0.23, -0.2, -31.43, 391.58, -32.83, 731.0, 3044.0, -453.0, 31.38, 838.53, 1461.99]
[42055, 1542153264.47, -0.12, 0.27, -0.23, -28.77, 391.3, -35.21, 686.0, 3029.0, -410.0, 31.38, 838.53, 1461.99]
[42056, 1542153264.48, -0.07, 0.27, -0.12, -26.46, 390.67, -37.45, 664.0, 2984.0, -417.0, 31.38, 838.53, 1461.99]
[42057, 1542153264.49, -0.13, 0.22, -0.18, -24.01, 390.88, -39.41, 639.0, 3057.0, -357.0, 31.38, 838.53, 1461.99]
[42058, 1542153264.5, -0.07, 0.18, -0.2, -23.1, 390.6, -40.67, 607.0, 3047.0, -297.0, 31.38, 838.53, 1461.99]
[42059, 1542153264.51, -0.12, 0.11, -0.17, -19.88, 389.9, -42.84, 607.0, 3047.0, -283.0, 31.38, 838.53, 1461.99]
[42060, 1542153264.52, -0.15, 0.14, -0.09, -0.77, 389.69, -43.89, 609.0, 3049.0, -283.0, 31.38, 838.53, 1461.99]
[42061, 1542153264.53, -0.03, 0.13, -0.11, -16.03, 389.2, -44.94, 562.0, 3047.0, -252.0, 31.38, 838.53, 1461.99]
[42062, 1542153264.54, -0.04, 0.15, -0.16, -13.16, 389.06, -45.99, 576.0, 3061.0, -206.0, 31.38, 838.53, 1461.99]
[42063, 1542153264.55, -0.11, 0.24, -0.17, -10.57, 388.71, -47.11, 552.0, 3071.0, -145.0, 31.38, 838.53, 1461.99]
[42064, 1542153264.57, -0.07, 0.16, -0.1, -8.68, 388.15, -47.53, 521.0, 3058.0, -121.0, 31.38, 838.53, 1461.99]
[42065, 1542153264.58, -0.12, 0.12, -0.12, -4.97, 387.94, -48.16, 546.0, 3082.0, -93.0, 31.38, 838.53, 1461.99]
[42066, 1542153264.59, -0.05, 0.05, -0.13, -2.8, 387.66, -48.72, 546.0, 3078.0, -39.0, 31.38, 838.53, 1461.99]
[42067, 1542153264.6, -0.1, 0.09, -0.11, 0.0, 387.17, -48.58, 562.0, 3078.0, -39.0, 31.38, 838.53, 1461.99]
[42068, 1542153264.61, -0.11, 0.05, -0.18, 2.17, 386.61, -48.79, 556.0, 3094.0, 57.0, 31.38, 838.53, 1461.99]
[42069, 1542153264.62, -0.05, 0.04, -0.15, 4.13, 386.68, -48.72, 566.0, 3085.0, 60.0, 31.38, 838.53, 1461.99]
[42070, 1542153264.63, -0.1, 0.03, -0.15, 6.3, 386.4, -48.23, 576.0, 3096.0, 71.0, 31.38, 838.53, 1461.99]
[42071, 1542153264.64, -0.05, 0.08, -0.11, 9.8, 386.05, -47.6, 593.0, 3104.0, 152.0, 31.38, 838.53, 1461.99]
[42072, 1542153264.65, -0.12, 0.1, -0.14, 12.18, 385.98, -46.76, 593.0, 3116.0, 148.0, 31.38, 838.53, 1461.99]
[42073, 1542153264.66, -0.13, 0.09, -0.12, 15.54, 385.7, -46.13, 631.0, 3130.0, 188.0, 31.31, 833.39, 1509.99]
[42074, 1542153264.67, -0.09, 0.11, -0.07, 19.18, 385.7, -44.87, 631.0, 3130.0, 243.0, 31.31, 833.39, 1509.99]
[42075, 1542153264.68, -0.14, 0.1, -0.11, 22.26, 386.12, -43.68, 639.0, 3142.0, 243.0, 31.31, 833.39, 1509.99]
[42076, 1542153264.7, -0.08, 0.08, -0.11, 25.13, 386.12, -42.0, 678.0, 3136.0, 249.0, 31.31, 833.39, 1509.99]
[42077, 1542153264.71, -0.14, 0.14, -0.11, 28.84, 385.63, -39.9, 684.0, 3142.0, 257.0, 31.31, 833.39, 1509.99]
[42078, 1542153264.72, -0.1, 0.15, -0.09, 32.55, 384.3, -37.1, 723.0, 3138.0, 255.0, 31.31, 833.39, 1509.99]
[42079, 1542153264.73, -0.07, 0.15, -0.12, 36.82, 383.46, -32.83, 737.0, 3165.0, 308.0, 31.31, 833.39, 1509.99]
[42080, 1542153264.74, -0.16, 0.13, -0.1, 39.62, 381.5, -28.63, 782.0, 3146.0, 317.0, 31.31, 833.39, 1509.99]
[42081, 1542153264.75, -0.1, 0.17, -0.08, 42.91, 379.05, -23.31, 782.0, 3142.0, 301.0, 31.31, 833.39, 1509.99]
[42082, 1542153264.76, -0.11, 0.25, -0.1, 45.36, 374.29, -16.87, 810.0, 3142.0, 301.0, 31.31, 833.39, 1509.99]
[42083, 1542153264.77, -0.07, 0.25, -0.09, 47.6, 369.04, -8.96, 841.0, 3173.0, 317.0, 31.31, 833.39, 1509.99]
[42084, 1542153264.78, -0.14, 0.24, -0.11, 49.14, 362.18, 0.0, 889.0, 3167.0, 310.0, 31.31, 833.39, 1509.99]
[42085, 1542153264.79, -0.16, 0.28, -0.08, 50.26, 353.43, 13.72, 887.0, 3181.0, 339.0, 31.31, 833.39, 1509.99]
[42086, 1542153264.8, -0.14, 0.32, -0.01, 51.17, 340.83, 31.22, 887.0, 3170.0, 339.0, 31.31, 833.39, 1509.99]
[42087, 1542153264.82, -0.12, 0.36, -0.05, 50.47, 305.83, 53.2, 914.0, 3173.0, 321.0, 31.31, 833.39, 1509.99]
[42088, 1542153264.83, -0.13, 0.41, -0.01, 48.79, 295.61, 82.25, 906.0, 3191.0, 326.0, 31.31, 833.39, 1509.99]
[42089, 1542153264.84, -0.12, 0.41, -0.02, 46.2, 267.33, 112.63, 906.0, 3189.0, 305.0, 31.31, 833.39, 1509.99]
[42090, 1542153264.85, -0.1, 0.43, 0.01, 42.63, 234.43, 147.35, 920.0, 3189.0, 305.0, 31.31, 833.39, 1509.99]
[42091, 1542153264.86, -0.08, 0.44, 0.02, 37.45, 197.75, 191.8, 881.0, 3182.0, 299.0, 31.31, 833.39, 1509.99]
[42092, 1542153264.87, -0.08, 0.44, 0.01, 32.83, 155.05, 228.13, 865.0, 3170.0, 290.0, 31.31, 833.39, 1509.99]
[42093, 1542153264.88, -0.07, 0.47, 0.02, 28.91, 121.31, 263.48, 825.0, 3117.0, 230.0, 31.31, 833.39, 1509.99]
[42094, 1542153264.89, -0.05, 0.54, 0.06, 25.97, 81.69, 321.79, 768.0, 3149.0, 322.0, 31.31, 833.39, 1509.99]
[42095, 1542153264.9, 0.05, 0.6, 0.05, 25.41, 34.86, 365.4, 725.0, 3107.0, 314.0, 31.31, 833.39, 1509.99]
[42096, 1542153264.91, 0.07, 0.73, 0.03, 32.9, -15.89, 433.09, 621.0, 3080.0, 298.0, 31.31, 833.39, 1509.99]
[42097, 1542153264.92, 0.16, 0.98, -0.03, 50.61, -84.7, 517.09, 621.0, 3007.0, 254.0, 31.31, 833.39, 1509.99]
[42098, 1542153264.94, 0.13, 1.35, -0.06, 76.02, -99.82, 583.17, 514.0, 3007.0, 254.0, 31.31, 833.39, 1509.99]
[42099, 1542153264.95, 0.17, 1.73, -0.12, 124.95, -108.5, 648.41, 396.0, 2942.0, 280.0, 31.31, 833.39, 1509.99]
[42100, 1542153264.96, 0.12, 2.08, -0.16, 146.09, -101.57, 716.24, 312.0, 2825.0, 274.0, 31.31, 833.39, 1509.99]
[42101, 1542153264.97, 0.09, 2.41, -0.2, 175.56, -85.4, 742.7, 184.0, 2671.0, 239.0, 31.31, 833.39, 1509.99]
[42102, 1542153264.98, 0.05, 2.75, -0.15, 205.24, -60.55, 775.39, 107.0, 2522.0, 215.0, 31.31, 833.39, 1509.99]
[42103, 1542153264.99, -0.0, 3.07, -0.13, 228.48, -31.01, 800.38, 64.0, 2305.0, 165.0, 31.31, 833.39, 1509.99]
[42104, 1542153265.0, -0.04, 3.41, -0.11, 244.79, -8.05, 819.0, 28.0, 2077.0, 181.0, 31.31, 833.39, 1509.99]
[42105, 1542153265.01, -0.05, 3.7, -0.11, 257.32, 15.68, 837.69, 28.0, 1821.0, 182.0, 31.31, 833.39, 1509.99]
[42106, 1542153265.02, -0.07, 4.16, -0.15, 270.27, 42.07, 864.85, 20.0, 1864.0, 182.0, 31.31, 833.39, 1509.99]
[42107, 1542153265.03, -0.1, 4.87, -0.15, 283.29, 72.31, 894.53, 73.0, 1637.0, 219.0, 31.31, 833.39, 1509.99]
[42108, 1542153265.04, -0.23, 5.99, -0.07, 295.05, 120.82, 925.05, 119.0, 1422.0, 264.0, 31.31, 833.39, 1509.99]
[42109, 1542153265.06, -0.46, 7.2, 0.17, 299.88, 136.57, 947.45, 223.0, 1211.0, 332.0, 31.31, 833.39, 1509.99]
[42110, 1542153265.07, -0.5, 6.9, 0.29, 280.91, 144.62, 955.71, 347.0, 1070.0, 401.0, 31.31, 833.39, 1509.99]
[42111, 1542153265.08, 0.0, 6.64, 0.41, 251.72, 149.38, 961.1, 554.0, 948.0, 488.0, 31.31, 833.39, 1509.99, 'launch']
[42112, 1542153265.09, 0.98, 6.71, -0.27, 220.78, 156.66, 946.05, 713.0, 855.0, 507.0, 31.31, 833.39, 1509.99]
[42113, 1542153265.1, 0.37, 7.92, -0.38, 175.7, 186.27, 886.48, 713.0, 855.0, 528.0, 31.31, 833.39, 1509.99]
[42114, 1542153265.11, -0.34, 5.07, -0.09, 135.1, 257.6, 796.39, 911.0, 842.0, 528.0, 31.31, 833.39, 1509.99]
[42115, 1542153265.12, -0.03, 3.76, -0.07, 81.83, 301.42, 733.11, 1096.0, 848.0, 574.0, 31.31, 833.39, 1509.99]
[42116, 1542153265.13, -0.43, 2.98, -0.31, 21.56, 331.17, 676.41, 1269.0, 919.0, 523.0, 31.31, 833.39, 1509.99]
[42117, 1542153265.14, -0.32, 2.59, -0.11, -20.51, 349.58, 599.76, 1426.0, 975.0, 501.0, 31.31, 833.39, 1509.99]
[42118, 1542153265.15, -0.44, 2.0, -0.11, -56.07, 355.88, 539.91, 1552.0, 1066.0, 462.0, 31.31, 833.39, 1509.99]
[42119, 1542153265.17, -0.42, 1.45, -0.33, -88.76, 349.02, 480.06, 1651.0, 1135.0, 407.0, 31.31, 833.39, 1509.99]
[42120, 1542153265.18, -0.45, 1.27, -0.08, -109.34, 331.73, 404.39, 1651.0, 1207.0, 316.0, 31.31, 833.39, 1509.99]
[42121, 1542153265.19, -0.44, 1.04, -0.13, -123.83, 300.02, 340.62, 1749.0, 1207.0, 256.0, 31.31, 833.39, 1509.99]
[42122, 1542153265.2, -0.46, 0.74, -0.12, -126.91, 261.45, 290.71, 1810.0, 1296.0, 256.0, 31.31, 833.39, 1509.99]
[42123, 1542153265.21, -0.47, 0.57, -0.05, -122.29, 202.3, 238.77, 1833.0, 1333.0, 217.0, 31.31, 833.39, 1509.99]
[42124, 1542153265.22, -0.42, 0.45, -0.04, -112.21, 152.39, 194.74, 1881.0, 1432.0, 152.0, 31.31, 833.39, 1509.99]
[42125, 1542153265.23, -0.44, 0.4, -0.01, -96.39, 101.71, 157.36, 1901.0, 1439.0, 88.0, 31.31, 833.39, 1509.99]
[42126, 1542153265.24, -0.38, 0.36, 0.01, -77.7, 42.14, 110.88, 1915.0, 1471.0, 88.0, 31.31, 833.39, 1509.99]
[42127, 1542153265.25, -0.2, 0.27, -0.06, -61.25, -1.05, 83.37, 1927.0, 1516.0, 73.0, 31.31, 833.39, 1509.99]
[42128, 1542153265.26, -0.26, 0.42, 0.06, -46.2, -38.57, 52.57, 1933.0, 1516.0, 50.0, 31.31, 833.39, 1509.99]
[42129, 1542153265.27, -0.27, 0.26, -0.05, -26.6, -71.89, 18.55, 1933.0, 1516.0, 68.0, 31.31, 833.39, 1509.99]
[42130, 1542153265.29, -0.13, 0.2, -0.04, -12.25, -91.91, -2.1, 1919.0, 1529.0, 68.0, 31.31, 833.39, 1509.99]
[42131, 1542153265.3, -0.14, 0.25, 0.02, 0.35, -110.53, -22.75, 1932.0, 1519.0, 110.0, 31.31, 833.39, 1509.99]
[42132, 1542153265.31, -0.14, 0.16, -0.06, 8.54, -129.64, -39.2, 1923.0, 1521.0, 145.0, 31.31, 833.39, 1509.99]
[42133, 1542153265.32, -0.09, 0.21, -0.05, 16.24, -144.41, -52.43, 1916.0, 1505.0, 179.0, 31.31, 833.39, 1509.99]
[42134, 1542153265.33, -0.11, 0.17, -0.01, 21.14, -156.03, -60.62, 1905.0, 1499.0, 192.0, 31.31, 833.39, 1509.99]
[42135, 1542153265.34, -0.06, 0.1, -0.05, 22.47, -162.05, -66.01, 1885.0, 1468.0, 220.0, 31.31, 833.39, 1509.99]
[42136, 1542153265.35, -0.05, 0.11, -0.05, 23.8, -167.23, -70.7, 1885.0, 1443.0, 294.0, 31.31, 833.39, 1509.99]
[42137, 1542153265.36, -0.12, 0.13, -0.05, 25.06, -172.9, -76.58, 1872.0, 1443.0, 294.0, 31.31, 833.39, 1509.99]
[42138, 1542153265.37, -0.07, 0.14, -0.06, 26.32, -179.55, -81.9, 1833.0, 1427.0, 303.0, 31.31, 833.39, 1509.99]
[42139, 1542153265.38, -0.07, 0.15, -0.07, 28.0, -187.04, -87.78, 1842.0, 1424.0, 351.0, 31.31, 833.39, 1509.99]
[42140, 1542153265.39, -0.07, 0.18, -0.06, 28.77, -195.3, -93.24, 1879.0, 1373.0, 374.0, 31.31, 833.39, 1509.99]
[42141, 1542153265.41, -0.06, 0.16, -0.08, 28.77, -202.93, -98.84, 1793.0, 1369.0, 449.0, 31.31, 833.39, 1509.99]
[42142, 1542153265.42, -0.01, 0.17, -0.07, 29.33, -211.05, -104.79, 1739.0, 1361.0, 496.0, 31.31, 833.39, 1509.99]
[42143, 1542153265.43, -0.06, 0.2, -0.06, 29.26, -218.75, -112.56, 1696.0, 1336.0, 525.0, 31.31, 833.39, 1509.99]
[42144, 1542153265.44, -0.08, 0.23, -0.07, 29.33, -228.55, -120.47, 1696.0, 1336.0, 539.0, 31.31, 833.39, 1509.99]
[42145, 1542153265.45, -0.08, 0.25, -0.07, 29.05, -242.34, -133.28, 1639.0, 1285.0, 582.0, 31.31, 833.39, 1509.99]
[42146, 1542153265.46, -0.08, 0.27, -0.09, 27.93, -251.3, -141.05, 1639.0, 1029.0, 627.0, 31.31, 833.39, 1509.99]
[42147, 1542153265.47, -0.09, 0.37, -0.09, 26.11, -261.31, -149.94, 1584.0, 1259.0, 627.0, 31.31, 833.39, 1509.99]
[42148, 1542153265.49, -0.09, 0.38, -0.09, 24.01, -270.27, -160.79, 1531.0, 1243.0, 660.0, 31.31, 833.39, 1509.99]
[42149, 1542153265.5, -0.11, 0.44, -0.11, 22.12, -279.44, -173.39, 1476.0, 1231.0, 664.0, 31.31, 833.39, 1509.99]
[42150, 1542153265.51, -0.09, 0.52, -0.11, 18.9, -286.65, -191.1, 1385.0, 1199.0, 719.0, 31.31, 833.39, 1509.99]
[42151, 1542153265.52, -0.09, 0.63, -0.06, 15.61, -293.44, -208.53, 1328.0, 1188.0, 759.0, 31.31, 833.39, 1509.99]
[42152, 1542153265.53, -0.1, 0.72, -0.13, 10.57, -297.5, -227.29, 1261.0, 1151.0, 789.0, 31.31, 833.39, 1509.99]
[42153, 1542153265.54, -0.07, 0.8, -0.13, 3.99, -297.5, -245.98, 1174.0, 1135.0, 802.0, 31.31, 833.39, 1509.99]
[42154, 1542153265.55, -0.07, 0.96, -0.13, -4.76, -291.69, -264.74, 1174.0, 1135.0, 822.0, 31.31, 833.39, 1509.99]
[42155, 1542153265.56, -0.0, 1.33, -0.12, -18.27, -279.23, -304.08, 1084.0, 1121.0, 822.0, 31.31, 833.39, 1509.99]
[42156, 1542153265.57, 0.12, 1.61, -0.1, -33.32, -256.48, -317.45, 1009.0, 1092.0, 812.0, 31.31, 833.39, 1509.99]
[42157, 1542153265.58, 0.1, 1.84, -0.12, -49.42, -235.62, -339.5, 914.0, 1097.0, 804.0, 31.31, 833.39, 1509.99]
[42158, 1542153265.59, 0.1, 1.86, -0.07, -66.71, -219.31, -354.13, 820.0, 1078.0, 802.0, 31.31, 833.39, 1509.99]
[42159, 1542153265.61, 0.11, 1.97, -0.12, -84.7, -207.55, -361.13, 733.0, 1133.0, 799.0, 31.31, 833.39, 1509.99]
[42160, 1542153265.62, 0.15, 2.04, -0.13, -99.96, -205.17, -360.78, 635.0, 1116.0, 774.0, 31.31, 833.39, 1509.99]
[42161, 1542153265.63, 0.12, 1.69, -0.19, -115.36, -206.08, -357.0, 635.0, 1143.0, 734.0, 31.44, 833.58, 1508.26]
[42162, 1542153265.64, -0.0, 1.52, -0.14, -129.01, -207.27, -351.33, 584.0, 1143.0, 734.0, 31.44, 833.58, 1508.26]
[42163, 1542153265.65, -0.2, 1.42, -0.18, -141.89, -207.06, -345.87, 499.0, 1167.0, 670.0, 31.44, 833.58, 1508.26]
[42164, 1542153265.66, -0.11, 1.32, -0.06, -152.81, -205.73, -339.92, 422.0, 1186.0, 639.0, 31.44, 833.58, 1508.26]
[42165, 1542153265.67, -0.15, 1.34, -0.1, -166.53, -205.17, -333.13, 349.0, 1226.0, 604.0, 31.44, 833.58, 1508.26]
[42166, 1542153265.68, -0.28, 1.63, -0.08, -195.44, -202.51, -323.19, 280.0, 1263.0, 541.0, 31.44, 833.58, 1508.26]
[42167, 1542153265.69, 0.2, 1.52, -0.26, -185.29, -192.85, -289.24, 233.0, 1277.0, 454.0, 31.44, 833.58, 1508.26]
[42168, 1542153265.7, -0.2, 2.22, -0.62, -193.97, -176.96, -280.84, 178.0, 1330.0, 410.0, 31.44, 833.58, 1508.26]
[42169, 1542153265.71, -0.09, 1.78, 0.07, -179.13, -153.58, -252.14, 178.0, 1330.0, 372.0, 31.44, 833.58, 1508.26]
[42170, 1542153265.72, 0.08, 1.5, -0.2, -176.12, -125.44, -221.9, 184.0, 1365.0, 372.0, 31.44, 833.58, 1508.26]
[42171, 1542153265.74, 0.01, 0.98, -0.24, -161.21, -99.05, -192.57, 121.0, 1417.0, 334.0, 31.44, 833.58, 1508.26]
[42172, 1542153265.75, 0.05, 0.91, -0.09, -127.82, -76.23, -168.63, 97.0, 1459.0, 293.0, 31.44, 833.58, 1508.26]
[42173, 1542153265.76, 0.03, 0.84, -0.19, -127.75, -52.22, -140.84, 85.0, 1504.0, 306.0, 31.44, 833.58, 1508.26]
[42174, 1542153265.77, 0.04, 0.75, -0.18, -106.47, -25.9, -117.88, 75.0, 1520.0, 249.0, 31.44, 833.58, 1508.26]
[42175, 1542153265.78, 0.08, 0.53, -0.13, -86.52, 16.1, -98.28, 69.0, 1531.0, 266.0, 31.44, 833.58, 1508.26]
[42176, 1542153265.79, 0.07, 0.56, -0.21, -64.96, 27.93, -78.4, 69.0, 1547.0, 277.0, 31.44, 833.58, 1508.26]
[42177, 1542153265.8, 0.01, 0.47, -0.12, -40.11, 53.69, -59.15, 67.0, 1547.0, 268.0, 31.44, 833.58, 1508.26]
[42178, 1542153265.81, 0.02, 0.45, -0.2, -1.4, 78.19, -42.35, 60.0, 1574.0, 268.0, 31.44, 833.58, 1508.26]
[42179, 1542153265.82, 0.04, 0.45, -0.16, 6.37, 103.32, -22.68, 44.0, 1599.0, 275.0, 31.44, 833.58, 1508.26]
[42180, 1542153265.83, 0.02, 0.42, -0.15, 27.93, 126.21, -7.42, 52.0, 1584.0, 280.0, 31.44, 833.58, 1508.26]
[42181, 1542153265.84, 0.03, 0.39, -0.15, 46.2, 147.07, 4.69, 77.0, 1584.0, 375.0, 31.44, 833.58, 1508.26]
[42182, 1542153265.86, -0.01, 0.47, -0.18, 62.86, 171.01, 18.34, 81.0, 1581.0, 378.0, 31.44, 833.58, 1508.26]
[42183, 1542153265.87, -0.02, 0.5, -0.14, 79.38, 188.86, 32.06, 99.0, 1591.0, 428.0, 31.44, 833.58, 1508.26]
[42184, 1542153265.88, -0.04, 0.53, -0.16, 95.97, 204.61, 46.27, 99.0, 1576.0, 469.0, 31.44, 833.58, 1508.26]
[42185, 1542153265.89, -0.04, 0.6, -0.15, 107.38, 218.54, 64.96, 101.0, 1576.0, 469.0, 31.44, 833.58, 1508.26]
[42186, 1542153265.9, -0.07, 0.64, -0.06, 118.58, 229.81, 80.71, 150.0, 1572.0, 520.0, 31.44, 833.58, 1508.26]
[42187, 1542153265.91, -0.08, 0.69, -0.11, 126.07, 236.67, 96.39, 166.0, 1566.0, 553.0, 31.44, 833.58, 1508.26]
[42188, 1542153265.92, -0.11, 0.77, -0.09, 131.25, 240.03, 112.28, 188.0, 1568.0, 609.0, 31.44, 833.58, 1508.26]
[42189, 1542153265.93, -0.13, 0.9, -0.06, 134.96, 239.33, 128.8, 225.0, 1576.0, 673.0, 31.44, 833.58, 1508.26]
[42190, 1542153265.94, -0.17, 1.07, -0.03, 136.15, 234.43, 144.55, 316.0, 1546.0, 741.0, 31.44, 833.58, 1508.26]
[42191, 1542153265.95, -0.21, 1.19, 0.06, 134.68, 225.82, 163.45, 325.0, 1546.0, 760.0, 31.44, 833.58, 1508.26]
[42192, 1542153265.96, -0.22, 1.16, 0.01, 130.55, 197.12, 176.4, 325.0, 1546.0, 830.0, 31.44, 833.58, 1508.26]
[42193, 1542153265.98, -0.22, 1.14, -0.01, 124.46, 206.5, 186.34, 384.0, 1538.0, 830.0, 31.44, 833.58, 1508.26]
[42194, 1542153265.99, -0.25, 1.17, -0.02, 117.18, 202.02, 193.27, 434.0, 1523.0, 816.0, 31.44, 833.58, 1508.26]
[42195, 1542153266.0, -0.27, 1.18, -0.06, 109.76, 201.18, 197.82, 463.0, 1540.0, 859.0, 31.44, 833.58, 1508.26]
[42196, 1542153266.01, -0.21, 1.16, -0.12, 99.96, 200.97, 201.88, 582.0, 1456.0, 883.0, 31.44, 833.58, 1508.26]
[42197, 1542153266.02, -0.22, 1.25, -0.17, 91.98, 200.41, 205.87, 582.0, 1513.0, 928.0, 31.44, 833.58, 1508.26]
[42198, 1542153266.03, -0.19, 1.35, -0.13, 83.86, 199.78, 208.67, 619.0, 1492.0, 961.0, 31.44, 833.58, 1508.26]
[42199, 1542153266.04, -0.18, 1.41, -0.16, 75.74, 198.66, 211.33, 619.0, 1486.0, 964.0, 31.44, 833.58, 1508.26]
[42200, 1542153266.05, -0.18, 1.26, -0.23, 66.22, 198.1, 212.59, 702.0, 1486.0, 956.0, 31.44, 833.58, 1508.26]
[42201, 1542153266.06, -0.12, 1.25, -0.18, 56.14, 197.12, 214.27, 761.0, 1531.0, 956.0, 31.44, 833.58, 1508.26]
[42202, 1542153266.07, -0.02, 1.35, -0.42, 47.81, 196.21, 214.76, 814.0, 1523.0, 981.0, 31.44, 833.58, 1508.26]
[42203, 1542153266.08, -0.01, 1.01, 0.0, 41.65, 196.0, 214.55, 857.0, 1501.0, 967.0, 31.44, 833.58, 1508.26]
[42204, 1542153266.1, -0.08, 1.11, -0.44, 28.7, 195.23, 213.92, 937.0, 1528.0, 959.0, 31.44, 833.58, 1508.26]
[42205, 1542153266.11, 0.08, 1.33, -0.13, 24.01, 189.21, 210.07, 963.0, 1544.0, 983.0, 31.44, 833.58, 1508.26]
[42206, 1542153266.12, -0.02, 1.3, -0.24, 10.71, 182.84, 203.91, 1036.0, 1540.0, 1012.0, 31.44, 833.58, 1508.26]
[42207, 1542153266.13, -0.06, 1.13, -0.27, -1.61, 172.2, 194.74, 1036.0, 1517.0, 988.0, 31.44, 833.58, 1508.26]
[42208, 1542153266.14, -0.08, 1.13, -0.24, -11.9, 160.23, 179.97, 1070.0, 1517.0, 988.0, 31.44, 833.58, 1508.26]
[42209, 1542153266.15, -0.05, 0.98, -0.09, -21.35, 146.65, 164.92, 1160.0, 1527.0, 956.0, 31.44, 833.58, 1508.26]
[42210, 1542153266.16, -0.05, 0.83, -0.17, -32.06, 127.26, 147.91, 1178.0, 1548.0, 1003.0, 31.44, 833.58, 1508.26]
[42211, 1542153266.17, -0.08, 0.81, -0.14, -39.13, 110.32, 130.27, 1228.0, 1537.0, 973.0, 31.44, 833.58, 1508.26]
[42212, 1542153266.18, -0.09, 0.81, -0.08, -44.87, 90.37, 91.35, 1238.0, 1525.0, 955.0, 31.44, 833.58, 1508.26]
[42213, 1542153266.19, -0.03, 0.7, -0.07, -50.19, 69.79, 85.26, 1251.0, 1539.0, 974.0, 31.44, 833.58, 1508.26]
[42214, 1542153266.2, 0.02, 0.5, -0.02, -52.57, 53.2, 66.99, 1286.0, 1540.0, 931.0, 31.44, 833.58, 1508.26]
[42215, 1542153266.21, 0.01, 0.65, -0.14, -55.86, 18.06, 46.9, 1286.0, 1540.0, 945.0, 31.44, 833.58, 1508.26]
[42216, 1542153266.23, -0.04, 0.63, -0.08, -55.44, 12.74, 24.85, 1298.0, 1540.0, 945.0, 31.44, 833.58, 1508.26]
[42217, 1542153266.24, -0.02, 0.54, -0.05, -56.7, -4.76, 5.11, 1297.0, 1490.0, 935.0, 31.44, 833.58, 1508.26]
[42218, 1542153266.25, -0.04, 0.47, -0.11, -56.98, -22.12, -11.13, 1295.0, 1496.0, 924.0, 31.44, 833.58, 1508.26]
[42219, 1542153266.26, -0.04, 0.51, -0.09, -56.49, -39.06, -32.48, 1280.0, 1473.0, 917.0, 31.44, 833.58, 1508.26]
[42220, 1542153266.27, -0.04, 0.5, -0.06, -55.16, -55.86, -49.42, 1262.0, 1446.0, 904.0, 31.44, 833.58, 1508.26]
[42221, 1542153266.28, -0.04, 0.55, -0.09, -55.23, -76.37, -65.59, 1243.0, 1448.0, 959.0, 31.44, 833.58, 1508.26]
[42222, 1542153266.29, -0.05, 0.55, -0.11, -54.74, -93.1, -81.69, 1243.0, 1418.0, 932.0, 31.44, 833.58, 1508.26]
[42223, 1542153266.3, -0.06, 0.58, -0.09, -54.25, -110.18, -97.23, 1218.0, 1418.0, 938.0, 31.44, 833.58, 1508.26]
[42224, 1542153266.31, -0.06, 0.58, -0.13, -55.09, -126.49, -111.51, 1178.0, 1383.0, 938.0, 31.44, 833.58, 1508.26]
[42225, 1542153266.32, -0.06, 0.65, -0.13, -56.84, -141.75, -127.89, 1151.0, 1371.0, 913.0, 31.44, 833.58, 1508.26]
[42226, 1542153266.33, -0.06, 0.72, -0.13, -59.22, -157.08, -141.05, 1131.0, 1357.0, 927.0, 31.44, 833.58, 1508.26]
[42227, 1542153266.35, -0.05, 0.76, -0.14, -62.23, -173.46, -152.81, 1050.0, 1342.0, 928.0, 31.44, 833.58, 1508.26]
[42228, 1542153266.36, -0.05, 0.86, -0.16, -66.78, -186.69, -164.43, 1011.0, 1311.0, 915.0, 31.44, 833.58, 1508.26]
[42229, 1542153266.37, -0.03, 0.94, -0.16, -89.32, -198.66, -175.0, 952.0, 1322.0, 916.0, 31.44, 833.58, 1508.26]
[42230, 1542153266.38, -0.03, 1.02, -0.16, -78.19, -209.65, -185.64, 952.0, 1279.0, 875.0, 31.44, 833.58, 1508.26]
[42231, 1542153266.39, -0.01, 1.09, -0.18, -84.63, -218.54, -192.99, 897.0, 1279.0, 875.0, 31.44, 833.58, 1508.26]
[42232, 1542153266.4, 0.01, 1.18, -0.18, -91.91, -225.54, -198.17, 827.0, 1272.0, 911.0, 31.44, 833.58, 1508.26]
[42233, 1542153266.41, 0.03, 1.27, -0.19, -99.75, -231.49, -201.46, 760.0, 1239.0, 885.0, 31.44, 833.58, 1508.26]
[42234, 1542153266.42, 0.04, 1.32, -0.19, -108.29, -234.99, -201.95, 725.0, 1229.0, 851.0, 31.44, 833.58, 1508.26]
[42235, 1542153266.43, 0.06, 1.33, -0.2, -118.65, -236.39, -199.36, 650.0, 1255.0, 824.0, 31.44, 833.58, 1508.26]
[42236, 1542153266.44, 0.05, 1.29, -0.19, -126.98, -237.93, -194.39, 558.0, 1229.0, 769.0, 31.44, 833.58, 1508.26]
[42237, 1542153266.45, 0.03, 1.28, -0.13, -135.31, -239.89, -190.05, 518.0, 1231.0, 733.0, 31.44, 833.58, 1508.26]
[42238, 1542153266.47, -0.01, 1.37, -0.18, -143.15, -241.36, -184.17, 518.0, 1231.0, 690.0, 31.44, 833.58, 1508.26]
[42239, 1542153266.48, -0.04, 1.48, -0.18, -151.06, -242.34, -178.01, 457.0, 1220.0, 690.0, 31.44, 833.58, 1508.26]
[42240, 1542153266.49, -0.06, 1.49, -0.18, -157.99, -243.32, -171.22, 404.0, 1227.0, 653.0, 31.44, 833.58, 1508.26]
[42241, 1542153266.5, -0.12, 1.49, -0.17, -166.74, -244.16, -163.87, 325.0, 1229.0, 585.0, 31.44, 833.58, 1508.26]
[42242, 1542153266.51, -0.1, 1.48, -0.17, -173.6, -245.0, -154.21, 300.0, 1225.0, 536.0, 31.44, 833.58, 1508.26]
[42243, 1542153266.52, -0.12, 1.49, -0.2, -179.62, -245.21, -145.53, 253.0, 1222.0, 498.0, 31.44, 833.58, 1508.26]
[42244, 1542153266.53, -0.17, 1.47, -0.14, -184.87, -245.91, -137.41, 233.0, 1261.0, 413.0, 31.44, 833.58, 1508.26]
[42245, 1542153266.54, -0.18, 1.4, -0.14, -190.61, -245.77, -128.24, 233.0, 1277.0, 366.0, 31.44, 833.58, 1508.26]
[42246, 1542153266.55, -0.27, 1.4, -0.09, -194.74, -245.84, -118.65, 190.0, 1277.0, 366.0, 31.44, 833.58, 1508.26]
[42247, 1542153266.56, -0.2, 1.41, -0.04, -199.08, -245.35, -90.72, 174.0, 1294.0, 287.0, 31.44, 833.58, 1508.26]
[42248, 1542153266.57, -0.29, 1.53, -0.09, -199.29, -239.54, -94.85, 142.0, 1302.0, 214.0, 31.44, 833.58, 1508.26]
[42249, 1542153266.59, -0.27, 1.47, -0.11, -195.44, -232.26, -81.97, 95.0, 1304.0, 177.0, 31.44, 833.58, 1508.26]
[42250, 1542153266.6, -0.25, 1.4, -0.09, -185.29, -214.55, -67.76, 107.0, 1334.0, 119.0, 31.44, 834.02, 1504.08]
[42251, 1542153266.61, -0.16, 1.26, -0.12, -171.78, -198.45, -53.41, 103.0, 1350.0, 31.0, 31.44, 834.02, 1504.08]
[42252, 1542153266.62, -0.13, 1.1, -0.13, -154.21, -179.83, -39.83, 154.0, 1296.0, -56.0, 31.44, 834.02, 1504.08]
[42253, 1542153266.63, -0.11, 0.98, -0.1, -130.27, -159.46, -27.51, 154.0, 1296.0, -88.0, 31.44, 834.02, 1504.08]
[42254, 1542153266.64, -0.11, 0.86, -0.11, -108.85, -140.35, -14.21, 111.0, 1383.0, -88.0, 31.44, 834.02, 1504.08]
[42255, 1542153266.65, -0.08, 0.78, -0.1, -86.45, -118.79, -4.69, 107.0, 1395.0, -80.0, 31.44, 834.02, 1504.08]
[42256, 1542153266.66, -0.09, 0.62, -0.08, -63.42, -91.56, 2.45, 123.0, 1409.0, -147.0, 31.44, 834.02, 1504.08]
[42257, 1542153266.67, -0.1, 0.59, -0.06, -42.98, -72.38, 8.75, 91.0, 1409.0, -158.0, 31.44, 834.02, 1504.08]
[42258, 1542153266.68, -0.07, 0.58, -0.06, -4.27, -53.13, 14.91, 123.0, 1411.0, -163.0, 31.44, 834.02, 1504.08]
[42259, 1542153266.69, -0.09, 0.62, -0.03, 3.36, -33.39, 21.56, 130.0, 1403.0, -179.0, 31.44, 834.02, 1504.08]
[42260, 1542153266.7, -0.07, 0.61, -0.05, 24.08, -13.16, 26.95, 172.0, 1342.0, -195.0, 31.44, 834.02, 1504.08]
[42261, 1542153266.72, -0.11, 0.65, -0.05, 44.66, 4.06, 32.62, 172.0, 1342.0, -187.0, 31.44, 834.02, 1504.08]
[42262, 1542153266.73, -0.12, 0.71, -0.02, 64.68, 24.99, 37.66, 125.0, 1373.0, -187.0, 31.44, 834.02, 1504.08]
[42263, 1542153266.74, -0.12, 0.86, -0.01, 83.09, 41.09, 43.82, 123.0, 1350.0, -160.0, 31.44, 834.02, 1504.08]
[42264, 1542153266.75, -0.13, 0.91, 0.0, 101.01, 55.79, 50.75, 125.0, 1331.0, -140.0, 31.44, 834.02, 1504.08]
[42265, 1542153266.76, -0.14, 1.01, 0.03, 120.89, 67.2, 59.08, 162.0, 1307.0, -101.0, 31.44, 834.02, 1504.08]
[42266, 1542153266.77, -0.18, 1.11, 0.04, 134.47, 76.02, 66.78, 125.0, 1313.0, -95.0, 31.44, 834.02, 1504.08]
[42267, 1542153266.78, -0.2, 1.23, 0.07, 145.67, 81.13, 74.76, 148.0, 1293.0, -56.0, 31.44, 834.02, 1504.08]
[42268, 1542153266.79, -0.22, 1.33, 0.1, 153.86, 83.23, 82.6, 148.0, 1247.0, -14.0, 31.44, 834.02, 1504.08]
[42269, 1542153266.8, -0.24, 1.44, 0.13, 159.39, 80.71, 89.39, 146.0, 1247.0, -14.0, 31.44, 834.02, 1504.08]
[42270, 1542153266.81, -0.25, 1.37, 0.12, 178.92, 77.28, 94.36, 166.0, 1237.0, 30.0, 31.44, 834.02, 1504.08]
[42271, 1542153266.82, -0.31, 1.34, 0.1, 161.0, 77.84, 96.95, 164.0, 1198.0, 75.0, 31.44, 834.02, 1504.08]
[42272, 1542153266.84, -0.25, 1.25, 0.02, 160.93, 78.19, 100.52, 174.0, 1170.0, 118.0, 31.44, 834.02, 1504.08]
[42273, 1542153266.85, -0.2, 1.29, -0.01, 160.37, 78.96, 102.97, 186.0, 1173.0, 149.0, 31.44, 834.02, 1504.08]
[42274, 1542153266.86, -0.19, 1.37, -0.01, 159.53, 79.17, 105.28, 213.0, 1141.0, 176.0, 31.44, 834.02, 1504.08]
[42275, 1542153266.87, -0.22, 1.38, -0.05, 158.69, 78.96, 107.87, 243.0, 1137.0, 207.0, 31.44, 834.02, 1504.08]
[42276, 1542153266.88, -0.19, 1.44, -0.06, 157.15, 78.89, 110.46, 243.0, 1137.0, 231.0, 31.44, 834.02, 1504.08]
[42277, 1542153266.89, -0.16, 1.5, -0.1, 155.75, 78.33, 113.05, 247.0, 1116.0, 231.0, 31.44, 834.02, 1504.08]
[42278, 1542153266.9, -0.17, 1.56, -0.12, 154.35, 77.14, 115.57, 251.0, 1087.0, 286.0, 31.44, 834.02, 1504.08]
[42279, 1542153266.91, -0.15, 1.56, -0.17, 152.74, 76.86, 118.3, 290.0, 1070.0, 319.0, 31.44, 834.02, 1504.08]
[42280, 1542153266.92, -0.11, 1.56, -0.18, 151.27, 75.95, 120.68, 306.0, 1042.0, 324.0, 31.44, 834.02, 1504.08]
[42281, 1542153266.93, -0.11, 1.5, -0.2, 149.59, 75.04, 123.48, 327.0, 1035.0, 383.0, 31.44, 834.02, 1504.08]
[42282, 1542153266.94, -0.11, 1.49, -0.22, 148.4, 74.55, 125.93, 361.0, 1037.0, 423.0, 31.44, 834.02, 1504.08]
[42283, 1542153266.96, -0.04, 1.43, -0.24, 145.88, 73.57, 128.17, 361.0, 1042.0, 437.0, 31.44, 834.02, 1504.08]
[42284, 1542153266.97, -0.03, 1.37, -0.27, 143.36, 71.61, 130.83, 394.0, 1042.0, 437.0, 31.44, 834.02, 1504.08]
[42285, 1542153266.98, -0.04, 1.52, -0.42, 139.58, 70.28, 132.37, 400.0, 999.0, 480.0, 31.44, 834.02, 1504.08]
[42286, 1542153266.99, 0.04, 1.52, -0.25, 132.86, 61.88, 130.13, 440.0, 1013.0, 525.0, 31.44, 834.02, 1504.08]
[42287, 1542153267.0, -0.15, 1.39, -0.21, 124.74, 51.94, 125.58, 463.0, 1013.0, 542.0, 31.44, 834.02, 1504.08]
[42288, 1542153267.01, -0.07, 1.44, -0.09, 113.75, 37.1, 118.3, 518.0, 1017.0, 593.0, 31.44, 834.02, 1504.08]
[42289, 1542153267.02, -0.09, 1.28, -0.19, 97.02, 21.35, 106.82, 520.0, 1013.0, 568.0, 31.44, 834.02, 1504.08]
[42290, 1542153267.03, -0.23, 1.28, -0.18, 81.55, 3.01, 95.97, 548.0, 1028.0, 594.0, 31.44, 834.02, 1504.08]
[42291, 1542153267.04, -0.17, 1.12, -0.04, 66.5, -32.06, 83.16, 548.0, 772.0, 591.0, 31.44, 834.02, 1504.08]
[42292, 1542153267.05, -0.2, 1.03, -0.08, 49.84, -36.68, 70.63, 550.0, 1012.0, 591.0, 31.44, 834.02, 1504.08]
[42293, 1542153267.06, -0.19, 0.96, -0.07, 33.67, -53.83, 58.17, 546.0, 995.0, 624.0, 31.44, 834.02, 1504.08]
[42294, 1542153267.07, -0.13, 0.93, -0.06, 13.51, -70.28, 45.99, 573.0, 987.0, 582.0, 31.44, 834.02, 1504.08]
[42295, 1542153267.09, -0.18, 0.88, -0.07, -1.75, -84.42, 32.13, 538.0, 1002.0, 603.0, 31.44, 834.02, 1504.08]
[42296, 1542153267.1, -0.15, 0.87, -0.08, -18.2, -95.55, 22.19, 538.0, 997.0, 594.0, 31.44, 834.02, 1504.08]
[42297, 1542153267.11, -0.15, 0.89, -0.09, -35.14, -104.58, 13.23, 528.0, 979.0, 586.0, 31.44, 834.02, 1504.08]
[42298, 1542153267.12, -0.12, 0.99, -0.1, -51.52, -112.21, 5.46, 528.0, 993.0, 538.0, 31.44, 834.02, 1504.08]
[42299, 1542153267.13, -0.1, 0.98, -0.11, -68.67, -116.06, -0.35, 520.0, 993.0, 559.0, 31.44, 834.02, 1504.08]
[42300, 1542153267.14, -0.09, 1.0, -0.14, -87.15, -117.04, -4.69, 514.0, 967.0, 559.0, 31.44, 834.02, 1504.08]
[42301, 1542153267.15, -0.07, 1.03, -0.14, -101.15, -116.41, -7.56, 524.0, 944.0, 501.0, 31.44, 834.02, 1504.08]
[42302, 1542153267.16, -0.05, 1.07, -0.16, -113.54, -114.45, -8.82, 505.0, 962.0, 487.0, 31.44, 834.02, 1504.08]
[42303, 1542153267.17, -0.04, 1.13, -0.19, -124.32, -111.09, -8.54, 477.0, 926.0, 433.0, 31.44, 834.02, 1504.08]
[42304, 1542153267.18, -0.03, 1.2, -0.22, -133.28, -108.64, -8.19, 475.0, 938.0, 405.0, 31.44, 834.02, 1504.08]
[42305, 1542153267.19, -0.02, 1.23, -0.23, -140.35, -106.19, -6.65, 451.0, 922.0, 391.0, 31.44, 834.02, 1504.08]
[42306, 1542153267.21, -0.02, 1.24, -0.26, -144.2, -104.72, -3.78, 451.0, 925.0, 338.0, 31.44, 834.02, 1504.08]
[42307, 1542153267.22, -0.02, 1.27, -0.28, -145.32, -104.51, -1.19, 473.0, 925.0, 338.0, 31.44, 834.02, 1504.08]
[42308, 1542153267.23, -0.01, 1.22, -0.26, -144.9, -105.77, 1.47, 447.0, 898.0, 278.0, 31.44, 834.02, 1504.08]
[42309, 1542153267.24, -0.05, 1.22, -0.25, -144.9, -106.68, 4.2, 497.0, 847.0, 202.0, 31.44, 834.02, 1504.08]
[42310, 1542153267.25, -0.04, 1.27, -0.18, -144.27, -108.15, 6.86, 436.0, 895.0, 220.0, 31.44, 834.02, 1504.08]
[42311, 1542153267.26, -0.04, 1.28, -0.22, -144.55, -108.99, 9.59, 469.0, 879.0, 210.0, 31.44, 834.02, 1504.08]
[42312, 1542153267.27, -0.04, 1.28, -0.19, -144.62, -110.04, 13.79, 452.0, 879.0, 128.0, 31.44, 834.02, 1504.08]
[42313, 1542153267.28, -0.05, 1.31, -0.14, -143.92, -111.09, 16.87, 446.0, 873.0, 112.0, 31.44, 834.02, 1504.08]
[42314, 1542153267.29, -0.03, 1.32, -0.13, -143.78, -112.28, 20.23, 446.0, 873.0, 66.0, 31.44, 834.02, 1504.08]
[42315, 1542153267.3, -0.06, 1.37, -0.15, -143.01, -113.05, 22.96, 456.0, 875.0, 66.0, 31.44, 834.02, 1504.08]
[42316, 1542153267.31, -0.05, 1.34, -0.08, -141.75, -113.96, 26.18, 467.0, 871.0, 16.0, 31.44, 834.02, 1504.08]
[42317, 1542153267.33, -0.05, 1.31, -0.07, -140.63, -115.08, 29.54, 469.0, 879.0, -27.0, 31.44, 834.02, 1504.08]
[42318, 1542153267.34, -0.04, 1.3, -0.04, -139.02, -115.92, 33.18, 481.0, 875.0, -40.0, 31.44, 834.02, 1504.08]
[42319, 1542153267.35, -0.04, 1.31, -0.02, -137.83, -116.48, 36.12, 497.0, 855.0, -127.0, 31.44, 834.02, 1504.08]
[42320, 1542153267.36, -0.01, 1.31, 0.01, -135.87, -117.18, 39.2, 487.0, 863.0, -122.0, 31.44, 834.02, 1504.08]
[42321, 1542153267.37, -0.03, 1.3, 0.05, -133.49, -118.02, 41.86, 743.0, 871.0, -174.0, 31.44, 834.02, 1504.08]
[42322, 1542153267.38, -0.04, 1.3, 0.07, -131.25, -118.86, 44.87, 518.0, 871.0, -174.0, 31.44, 834.02, 1504.08]
[42323, 1542153267.39, -0.03, 1.29, 0.11, -127.82, -119.77, 47.46, 558.0, 894.0, -245.0, 31.44, 834.02, 1504.08]
[42324, 1542153267.4, -0.02, 1.34, 0.16, -122.71, -120.75, 49.7, 550.0, 904.0, -237.0, 31.44, 834.02, 1504.08]
[42325, 1542153267.41, -0.07, 1.31, 0.09, -116.34, -122.57, 50.4, 564.0, 904.0, -291.0, 31.44, 834.02, 1504.08]
[42326, 1542153267.42, -0.07, 1.31, 0.07, -106.68, -125.37, 49.56, 581.0, 904.0, -301.0, 31.44, 834.02, 1504.08]
[42327, 1542153267.43, -0.07, 1.21, 0.09, -94.78, -127.19, 46.97, 621.0, 904.0, -350.0, 31.44, 834.02, 1504.08]
[42328, 1542153267.45, -0.05, 1.12, 0.05, -80.43, -128.66, 43.05, 615.0, 918.0, -373.0, 31.44, 834.02, 1504.08]
[42329, 1542153267.46, -0.1, 1.05, 0.05, -61.32, -129.43, 37.38, 615.0, 918.0, -358.0, 31.44, 834.02, 1504.08]
[42330, 1542153267.47, -0.06, 0.99, 0.05, -45.01, -128.38, 29.33, 656.0, 936.0, -358.0, 31.44, 834.02, 1504.08]
[42331, 1542153267.48, -0.06, 0.93, 0.04, -28.28, -126.28, 21.35, 674.0, 928.0, -406.0, 31.44, 834.02, 1504.08]
[42332, 1542153267.49, -0.06, 0.87, 0.02, -12.39, -122.36, 12.25, 686.0, 938.0, -434.0, 31.44, 834.02, 1504.08]
[42333, 1542153267.5, -0.05, 0.84, 0.02, 2.73, -117.6, 3.08, 704.0, 910.0, -434.0, 31.44, 834.02, 1504.08]
[42334, 1542153267.51, -0.06, 0.84, 0.03, 35.14, -111.93, -6.09, 718.0, 919.0, -425.0, 31.44, 834.02, 1504.08]
[42335, 1542153267.52, -0.06, 0.85, 0.04, 34.72, -105.84, -18.62, 712.0, 954.0, -435.0, 31.44, 834.02, 1504.08]
[42336, 1542153267.53, -0.03, 0.87, 0.04, 47.32, -98.42, -28.84, 702.0, 907.0, -407.0, 31.44, 834.02, 1504.08]
[42337, 1542153267.54, -0.04, 0.91, 0.05, 60.06, -72.45, -39.97, 702.0, 907.0, -430.0, 31.44, 834.02, 1504.08]
[42338, 1542153267.55, -0.03, 0.94, 0.06, 71.19, -79.94, -49.63, 702.0, 913.0, -430.0, 31.5, 834.49, 1499.75]
[42339, 1542153267.56, -0.02, 1.01, 0.06, 81.27, -70.0, -59.29, 729.0, 906.0, -414.0, 31.5, 834.49, 1499.75]
[42340, 1542153267.58, -0.0, 1.07, 0.08, 91.0, -59.57, -68.53, 715.0, 887.0, -429.0, 31.5, 834.49, 1499.75]
[42341, 1542153267.59, 0.01, 1.11, 0.09, 97.72, -49.56, -78.05, 713.0, 900.0, -420.0, 31.5, 834.49, 1499.75]
[42342, 1542153267.6, 0.01, 1.15, 0.1, 102.27, -42.35, -83.58, 696.0, 892.0, -369.0, 31.5, 834.49, 1499.75]
[42343, 1542153267.61, 0.04, 1.23, 0.12, 105.49, -37.59, -87.64, 694.0, 885.0, -361.0, 31.5, 834.49, 1499.75]
[42344, 1542153267.62, 0.06, 1.24, 0.14, 107.52, -35.91, -89.46, 694.0, 861.0, -324.0, 31.5, 834.49, 1499.75]
[42345, 1542153267.63, 0.1, 1.2, 0.15, 108.29, -36.61, -90.09, 676.0, 861.0, -324.0, 31.5, 834.49, 1499.75]
[42346, 1542153267.64, 0.02, 1.11, 0.11, 108.71, -37.73, -90.51, 664.0, 875.0, -305.0, 31.5, 834.49, 1499.75]
[42347, 1542153267.65, 0.03, 1.18, 0.09, 108.08, -38.01, -91.07, 646.0, 855.0, -301.0, 31.5, 834.49, 1499.75]
[42348, 1542153267.66, 0.04, 1.24, 0.09, 108.92, -37.73, -91.84, 644.0, 871.0, -288.0, 31.5, 834.49, 1499.75]
[42349, 1542153267.67, 0.03, 1.22, 0.08, 108.99, -38.43, -92.47, 605.0, 869.0, -256.0, 31.5, 834.49, 1499.75]
[42350, 1542153267.68, 0.02, 1.19, 0.05, 108.99, -38.36, -93.31, 597.0, 861.0, -232.0, 31.5, 834.49, 1499.75]
[42351, 1542153267.7, -0.01, 1.28, 0.06, 109.76, -38.71, -94.29, 577.0, 857.0, -235.0, 31.5, 834.49, 1499.75]
[42352, 1542153267.71, 0.05, 1.28, 0.02, 110.18, -38.78, -95.13, 577.0, 857.0, -200.0, 31.5, 834.49, 1499.75]
[42353, 1542153267.72, -0.01, 1.28, 0.01, 109.34, -39.13, -95.76, 562.0, 867.0, -200.0, 31.5, 834.49, 1499.75]
[42354, 1542153267.73, -0.02, 1.28, -0.01, 109.2, -38.99, -96.25, 554.0, 849.0, -181.0, 31.5, 834.49, 1499.75]
[42355, 1542153267.74, -0.03, 1.25, 0.0, 108.92, -39.06, -96.95, 538.0, 871.0, -149.0, 31.5, 834.49, 1499.75]
[42356, 1542153267.75, -0.05, 1.19, -0.04, 108.5, -39.55, -97.23, 522.0, 851.0, -133.0, 31.5, 834.49, 1499.75]
[42357, 1542153267.76, -0.07, 1.24, -0.05, 108.29, -39.34, -97.72, 500.0, 869.0, -151.0, 31.5, 834.49, 1499.75]
[42358, 1542153267.77, -0.08, 1.24, -0.06, 107.59, -39.48, -97.86, 506.0, 865.0, -137.0, 31.5, 834.49, 1499.75]
[42359, 1542153267.78, -0.1, 1.21, -0.08, 107.1, -39.62, -98.14, 506.0, 882.0, -148.0, 31.5, 834.49, 1499.75]
[42360, 1542153267.79, -0.13, 1.2, -0.1, 106.26, -39.83, -98.14, 457.0, 882.0, -148.0, 31.5, 834.49, 1499.75]
[42361, 1542153267.8, -0.14, 1.18, -0.11, 105.91, -40.04, -98.63, 451.0, 908.0, -97.0, 31.5, 834.49, 1499.75]
[42362, 1542153267.82, -0.16, 1.16, -0.14, 104.72, -40.04, -98.35, 432.0, 902.0, -110.0, 31.5, 834.49, 1499.75]
[42363, 1542153267.83, -0.18, 1.24, -0.2, 103.18, -39.48, -96.67, 420.0, 922.0, -94.0, 31.5, 834.49, 1499.75]
[42364, 1542153267.84, -0.14, 1.23, -0.11, 99.82, -38.29, -93.73, 404.0, 920.0, -49.0, 31.5, 834.49, 1499.75]
[42365, 1542153267.85, -0.12, 1.2, -0.15, 93.73, -34.79, -87.99, 392.0, 869.0, -120.0, 31.5, 834.49, 1499.75]
[42366, 1542153267.86, -0.15, 1.22, -0.12, 88.13, -30.38, -81.2, 392.0, 950.0, -11.0, 31.5, 834.49, 1499.75]
[42367, 1542153267.87, -0.1, 1.24, -0.05, 80.22, -22.61, -71.75, 392.0, 961.0, -25.0, 31.5, 834.49, 1499.75]
[42368, 1542153267.88, -0.06, 1.08, -0.13, 70.07, -15.33, -61.6, 357.0, 961.0, -25.0, 31.5, 834.49, 1499.75]
[42369, 1542153267.89, -0.07, 1.04, -0.07, 58.8, -6.37, -50.26, 349.0, 985.0, -23.0, 31.5, 834.49, 1499.75]
[42370, 1542153267.9, -0.06, 0.99, -0.05, 50.4, 1.61, -36.4, 373.0, 977.0, -14.0, 31.5, 834.49, 1499.75]
[42371, 1542153267.91, -0.05, 0.91, -0.04, 40.46, 10.92, -24.99, 345.0, 963.0, 11.0, 31.5, 834.49, 1499.75]
[42372, 1542153267.92, -0.06, 0.92, -0.09, 30.87, 19.74, -13.16, 343.0, 987.0, 37.0, 31.5, 834.49, 1499.75]
[42373, 1542153267.93, -0.06, 0.92, -0.06, 21.84, 30.8, -1.89, 329.0, 979.0, 14.0, 31.5, 834.49, 1499.75]
[42374, 1542153267.95, -0.07, 0.91, -0.06, 12.18, 38.71, 7.63, 343.0, 997.0, 26.0, 31.5, 834.49, 1499.75]
[42375, 1542153267.96, -0.07, 0.91, -0.08, 1.68, 46.27, 18.13, 343.0, 997.0, 33.0, 31.5, 834.49, 1499.75]
[42376, 1542153267.97, -0.09, 0.94, -0.07, -7.0, 52.15, 29.4, 337.0, 977.0, 33.0, 31.5, 834.49, 1499.75]
[42377, 1542153267.98, -0.1, 0.94, -0.08, -15.89, 56.98, 38.15, 349.0, 957.0, 55.0, 31.5, 834.49, 1499.75]
[42378, 1542153267.99, -0.12, 0.96, -0.08, -24.43, 59.92, 45.29, 339.0, 940.0, 72.0, 31.5, 834.49, 1499.75]
[42379, 1542153268.0, -0.13, 0.94, -0.1, -32.69, 61.39, 51.52, 377.0, 942.0, 39.0, 31.5, 834.49, 1499.75]
[42380, 1542153268.01, -0.15, 1.03, -0.09, -40.11, 60.27, 56.7, 388.0, 947.0, 79.0, 31.5, 834.49, 1499.75]
[42381, 1542153268.02, -0.17, 1.04, -0.11, -48.3, 57.82, 60.06, 380.0, 932.0, 72.0, 31.5, 834.49, 1499.75]
[42382, 1542153268.03, -0.18, 1.04, -0.11, -54.25, 53.9, 63.07, 380.0, 920.0, 43.0, 31.5, 834.49, 1499.75]
[42383, 1542153268.04, -0.19, 1.04, -0.12, -58.94, 49.0, 64.54, 394.0, 920.0, 43.0, 31.5, 834.49, 1499.75]
[42384, 1542153268.05, -0.19, 1.01, -0.12, -62.93, 42.63, 64.47, 455.0, 902.0, 8.0, 31.5, 834.49, 1499.75]
[42385, 1542153268.07, -0.15, 1.01, -0.15, -65.52, 38.64, 64.47, 398.0, 900.0, 45.0, 31.5, 834.49, 1499.75]
[42386, 1542153268.08, -0.17, 1.05, -0.18, -67.41, 36.61, 64.26, 436.0, 890.0, 48.0, 31.5, 834.49, 1499.75]
[42387, 1542153268.09, -0.16, 1.07, -0.18, -67.69, 35.63, 63.91, 445.0, 886.0, 47.0, 31.5, 834.49, 1499.75]
[42388, 1542153268.1, -0.15, 1.03, -0.14, -67.83, 35.84, 63.56, 453.0, 898.0, 28.0, 31.5, 834.49, 1499.75]
[42389, 1542153268.11, -0.14, 1.04, -0.2, -68.67, 35.63, 63.07, 453.0, 873.0, -12.0, 31.5, 834.49, 1499.75]
[42390, 1542153268.12, -0.15, 1.07, -0.19, -69.37, 34.86, 63.35, 453.0, 873.0, 9.0, 31.5, 834.49, 1499.75]
[42391, 1542153268.13, -0.14, 1.09, -0.18, -69.79, 34.93, 63.28, 461.0, 859.0, 9.0, 31.5, 834.49, 1499.75]
[42392, 1542153268.14, -0.13, 1.09, -0.19, -70.63, 34.37, 63.84, 479.0, 865.0, -33.0, 31.5, 834.49, 1499.75]
[42393, 1542153268.15, -0.12, 1.1, -0.17, -71.54, 34.02, 64.33, 491.0, 826.0, 3.0, 31.5, 834.49, 1499.75]
[42394, 1542153268.16, -0.12, 1.12, -0.17, -72.17, 33.6, 64.61, 501.0, 831.0, -31.0, 31.5, 834.49, 1499.75]
[42395, 1542153268.17, -0.11, 1.12, -0.17, -72.66, 32.97, 64.89, 528.0, 839.0, -81.0, 31.5, 834.49, 1499.75]
[42396, 1542153268.19, -0.1, 1.11, -0.16, -73.36, 32.06, 64.96, 561.0, 823.0, -78.0, 31.5, 834.49, 1499.75]
[42397, 1542153268.2, -0.09, 1.1, -0.15, -73.43, 31.64, 65.03, 561.0, 831.0, -107.0, 31.5, 834.49, 1499.75]
[42398, 1542153268.21, -0.08, 1.09, -0.14, -74.2, 31.15, 65.45, 548.0, 831.0, -109.0, 31.5, 834.49, 1499.75]
[42399, 1542153268.22, -0.06, 1.07, -0.06, -75.04, 30.59, 65.52, 548.0, 825.0, -109.0, 31.5, 834.49, 1499.75]
[42400, 1542153268.23, -0.05, 1.06, -0.11, -75.11, 30.03, 65.45, 564.0, 802.0, -74.0, 31.5, 834.49, 1499.75]
[42401, 1542153268.24, -0.04, 1.04, -0.09, -75.04, 29.12, 65.38, 589.0, 796.0, -119.0, 31.5, 834.49, 1499.75]
[42402, 1542153268.25, -0.03, 1.05, -0.08, -75.53, 28.7, 65.24, 593.0, 802.0, -129.0, 31.5, 834.49, 1499.75]
[42403, 1542153268.26, -0.02, 1.05, -0.07, -75.32, 27.72, 65.38, 601.0, 822.0, -155.0, 31.5, 834.49, 1499.75]
[42404, 1542153268.27, -0.0, 1.03, -0.04, -75.25, 26.74, 65.17, 605.0, 818.0, -134.0, 31.5, 834.49, 1499.75]
[42405, 1542153268.28, 0.0, 1.03, -0.03, -75.32, 25.97, 65.17, 605.0, 820.0, -118.0, 31.5, 834.49, 1499.75]
[42406, 1542153268.29, 0.02, 1.03, -0.0, -75.11, 24.99, 64.75, 617.0, 820.0, -118.0, 31.5, 834.49, 1499.75]
[42407, 1542153268.31, 0.03, 1.04, 0.02, -74.41, 23.17, 64.54, 633.0, 775.0, -189.0, 31.5, 834.49, 1499.75]
[42408, 1542153268.32, 0.05, 1.04, 0.04, -73.71, 21.63, 64.12, 652.0, 802.0, -200.0, 31.5, 834.49, 1499.75]
[42409, 1542153268.33, 0.09, 1.05, 0.07, -70.7, 17.64, 62.09, 660.0, 800.0, -198.0, 31.5, 834.49, 1499.75]
[42410, 1542153268.34, 0.02, 1.11, -0.03, -68.32, 11.13, 59.29, 697.0, 806.0, -236.0, 31.5, 834.49, 1499.75]
[42411, 1542153268.35, 0.0, 1.08, 0.01, -61.6, 4.06, 54.95, 695.0, 804.0, -236.0, 31.5, 834.49, 1499.75]
[42412, 1542153268.36, 0.02, 0.93, 0.06, -54.6, -4.41, 49.42, 733.0, 808.0, -241.0, 31.5, 834.49, 1499.75]
[42413, 1542153268.37, -0.04, 0.93, 0.02, -47.39, -18.69, 43.19, 733.0, 808.0, -242.0, 31.5, 834.49, 1499.75]
[42414, 1542153268.38, -0.03, 0.9, 0.03, -38.15, -30.66, 36.96, 709.0, 814.0, -242.0, 31.5, 834.49, 1499.75]
[42415, 1542153268.39, -0.03, 0.85, 0.04, -27.02, -43.68, 29.82, 715.0, 806.0, -270.0, 31.5, 834.49, 1499.75]
[42416, 1542153268.4, -0.03, 0.81, 0.03, -17.08, -56.42, 20.65, 737.0, 812.0, -276.0, 31.5, 834.49, 1499.75]
[42417, 1542153268.41, -0.05, 0.81, 0.01, -8.61, -68.39, 13.16, 733.0, 816.0, -297.0, 31.5, 834.49, 1499.75]
[42418, 1542153268.42, -0.03, 0.83, 0.04, 0.56, -79.17, 4.9, 749.0, 822.0, -290.0, 31.5, 834.49, 1499.75]
[42419, 1542153268.44, 0.0, 0.82, 0.04, 7.35, -89.53, -2.03, 741.0, 802.0, -306.0, 31.5, 834.49, 1499.75]
[42420, 1542153268.45, -0.01, 0.85, 0.01, 14.21, -96.04, -10.64, 741.0, 821.0, -277.0, 31.5, 834.49, 1499.75]
[42421, 1542153268.46, 0.02, 0.88, 0.03, 21.77, -99.54, -18.76, 743.0, 821.0, -277.0, 31.5, 834.49, 1499.75]
[42422, 1542153268.47, 0.03, 0.91, 0.03, 26.32, -101.08, -28.63, 765.0, 802.0, -351.0, 31.5, 834.49, 1499.75]
[42423, 1542153268.48, 0.04, 0.96, 0.03, 29.68, -100.8, -36.33, 763.0, 784.0, -303.0, 31.5, 834.49, 1499.75]
[42424, 1542153268.49, 0.06, 0.99, 0.03, 32.27, -98.21, -43.4, 751.0, 804.0, -276.0, 31.5, 834.49, 1499.75]
[42425, 1542153268.5, 0.08, 1.0, 0.05, 33.18, -94.99, -49.28, 747.0, 790.0, -304.0, 31.5, 834.49, 1499.75]
[42426, 1542153268.51, 0.07, 1.01, 0.04, 33.67, -91.49, -53.97, 763.0, 804.0, -267.0, 31.5, 834.49, 1499.75]
[42427, 1542153268.52, 0.09, 1.02, 0.04, 33.25, -88.9, -57.26, 749.0, 804.0, -275.0, 31.56, 835.09, 1494.15]
[42428, 1542153268.53, 0.12, 1.05, 0.02, 33.04, -89.18, -59.22, 749.0, 818.0, -249.0, 31.56, 835.09, 1494.15]
[42429, 1542153268.54, 0.1, 1.05, 0.02, 32.76, -89.88, -60.06, 731.0, 818.0, -249.0, 31.56, 835.09, 1494.15]
[42430, 1542153268.56, 0.08, 1.06, 0.03, 32.34, -91.49, -60.27, 733.0, 812.0, -275.0, 31.56, 835.09, 1494.15]
[42431, 1542153268.57, 0.05, 0.97, 0.0, 31.01, -92.47, -60.9, 733.0, 802.0, -262.0, 31.56, 835.09, 1494.15]
[42432, 1542153268.58, 0.06, 1.01, 0.02, 31.01, -93.17, -61.39, 741.0, 800.0, -285.0, 31.56, 835.09, 1494.15]
[42433, 1542153268.59, 0.01, 1.02, 0.02, 30.52, -94.22, -62.09, 719.0, 802.0, -283.0, 31.56, 835.09, 1494.15]
[42434, 1542153268.6, 0.07, 1.02, 0.0, 30.24, -94.78, -63.07, 699.0, 815.0, -282.0, 31.56, 835.09, 1494.15]
[42435, 1542153268.61, 0.04, 1.04, -0.01, 29.33, -95.34, -63.7, 721.0, 800.0, -300.0, 31.56, 835.09, 1494.15]
[42436, 1542153268.62, 0.04, 1.04, 0.0, 29.26, -96.11, -64.68, 721.0, 800.0, -276.0, 31.56, 835.09, 1494.15]
[42437, 1542153268.63, 0.05, 1.04, 0.0, 28.63, -96.88, -65.73, 697.0, 829.0, -276.0, 31.56, 835.09, 1494.15]
[42438, 1542153268.64, 0.04, 1.03, -0.0, 28.21, -97.37, -66.99, 687.0, 800.0, -262.0, 31.56, 835.09, 1494.15]
[42439, 1542153268.65, 0.03, 1.05, -0.0, 27.86, -97.3, -68.18, 693.0, 805.0, -262.0, 31.56, 835.09, 1494.15]
[42440, 1542153268.66, 0.04, 1.05, -0.01, 27.86, -97.65, -69.44, 681.0, 825.0, -267.0, 31.56, 835.09, 1494.15]
[42441, 1542153268.68, 0.03, 1.06, -0.02, 27.09, -98.0, -70.42, 664.0, 823.0, -262.0, 31.56, 835.09, 1494.15]
[42442, 1542153268.69, 0.02, 1.08, -0.03, 26.81, -98.0, -71.61, 678.0, 835.0, -250.0, 31.56, 835.09, 1494.15]
[42443, 1542153268.7, 0.02, 1.08, -0.03, 26.18, -98.0, -72.38, 678.0, 831.0, -287.0, 31.56, 835.09, 1494.15]
[42444, 1542153268.71, 0.01, 1.05, -0.04, 25.55, -98.0, -73.43, 672.0, 831.0, -287.0, 31.56, 835.09, 1494.15]
[42445, 1542153268.72, 0.0, 1.05, -0.04, 25.27, -98.49, -74.69, 658.0, 823.0, -265.0, 31.56, 835.09, 1494.15]
[42446, 1542153268.73, -0.0, 1.05, -0.05, 24.22, -98.42, -75.18, 654.0, 825.0, -298.0, 31.56, 835.09, 1494.15]
[42447, 1542153268.74, -0.01, 1.05, -0.05, 23.59, -98.56, -75.81, 632.0, 853.0, -270.0, 31.56, 835.09, 1494.15]
[42448, 1542153268.75, -0.03, 1.04, -0.06, 22.96, -98.49, -76.44, 630.0, 847.0, -263.0, 31.56, 835.09, 1494.15]
[42449, 1542153268.76, -0.04, 1.04, -0.07, 22.33, -98.7, -77.35, 636.0, 853.0, -267.0, 31.56, 835.09, 1494.15]
[42450, 1542153268.77, -0.05, 1.04, -0.07, 21.28, -98.35, -77.84, 640.0, 845.0, -268.0, 31.56, 835.09, 1494.15]
[42451, 1542153268.78, -0.07, 1.02, -0.07, 20.79, -98.49, -78.26, 640.0, 866.0, -303.0, 31.56, 835.09, 1494.15]
[42452, 1542153268.8, -0.08, 1.01, -0.09, 19.88, -98.49, -78.54, 616.0, 866.0, -303.0, 31.56, 835.09, 1494.15]
[42453, 1542153268.81, -0.1, 1.03, -0.09, 19.11, -98.07, -79.1, 625.0, 865.0, -284.0, 31.56, 835.09, 1494.15]
[42454, 1542153268.82, -0.11, 1.03, -0.09, 0.14, -97.65, -79.24, 593.0, 877.0, -294.0, 31.56, 835.09, 1494.15]
[42455, 1542153268.83, -0.13, 1.03, -0.09, 17.01, -97.44, -79.52, 599.0, 877.0, -259.0, 31.56, 835.09, 1494.15]
[42456, 1542153268.84, -0.15, 1.03, -0.09, 15.96, -97.72, -79.52, 583.0, 885.0, -316.0, 31.56, 835.09, 1494.15]
[42457, 1542153268.85, -0.17, 1.03, -0.09, 15.33, -97.37, -79.87, 572.0, 916.0, -308.0, 31.56, 835.09, 1494.15]
[42458, 1542153268.86, -0.18, 1.01, -0.07, 14.56, -96.74, -78.89, 585.0, 920.0, -303.0, 31.56, 835.09, 1494.15]
[42459, 1542153268.87, -0.25, 1.01, -0.14, 13.16, -93.66, -77.28, 585.0, 920.0, -324.0, 31.56, 835.09, 1494.15]
[42460, 1542153268.88, -0.15, 1.12, -0.07, 13.02, -89.95, -74.41, 572.0, 900.0, -324.0, 31.56, 835.09, 1494.15]
[42461, 1542153268.89, -0.17, 0.98, -0.16, 11.97, -83.93, -69.86, 544.0, 918.0, -328.0, 31.56, 835.09, 1494.15]
[42462, 1542153268.9, -0.19, 1.06, -0.1, 10.15, -78.26, -62.51, 572.0, 906.0, -334.0, 31.56, 835.09, 1494.15]
[42463, 1542153268.91, -0.14, 1.03, -0.01, 10.15, -71.61, -55.23, 577.0, 926.0, -337.0, 31.56, 835.09, 1494.15]
[42464, 1542153268.93, -0.12, 0.97, -0.07, 8.96, -62.86, -47.25, 550.0, 938.0, -329.0, 31.56, 835.09, 1494.15]
[42465, 1542153268.94, -0.11, 0.89, -0.09, 8.12, -53.34, -38.99, 546.0, 931.0, -356.0, 31.56, 835.09, 1494.15]
[42466, 1542153268.95, -0.09, 0.95, -0.05, 8.4, -44.94, -30.38, 546.0, 931.0, -334.0, 31.56, 835.09, 1494.15]
[42467, 1542153268.96, -0.09, 0.91, -0.09, 8.26, -35.98, -21.49, 550.0, 931.0, -334.0, 31.56, 835.09, 1494.15]
[42468, 1542153268.97, -0.1, 0.92, -0.07, 7.63, -26.95, -10.29, 544.0, 947.0, -352.0, 31.56, 835.09, 1494.15]
[42469, 1542153268.98, -0.11, 0.93, -0.09, 7.98, -0.98, -1.75, 595.0, 898.0, -341.0, 31.56, 835.09, 1494.15]
[42470, 1542153268.99, -0.12, 0.91, -0.05, 7.7, -9.31, 5.53, 540.0, 939.0, -342.0, 31.56, 835.09, 1494.15]
[42471, 1542153269.0, -0.12, 0.92, -0.08, 7.14, -2.8, 13.16, 573.0, 957.0, -343.0, 31.56, 835.09, 1494.15]
[42472, 1542153269.01, -0.14, 0.95, -0.07, 7.07, 1.19, 20.37, 553.0, 941.0, -343.0, 31.56, 835.09, 1494.15]
[42473, 1542153269.02, -0.15, 0.98, -0.04, 6.44, 4.41, 27.93, 546.0, 934.0, -361.0, 31.56, 835.09, 1494.15]
[42474, 1542153269.03, -0.16, 0.98, -0.0, 5.04, 6.23, 32.97, 546.0, 934.0, -363.0, 31.56, 835.09, 1494.15]
[42475, 1542153269.05, -0.18, 0.99, -0.06, 4.06, 6.3, 37.38, 576.0, 944.0, -363.0, 31.56, 835.09, 1494.15]
[42476, 1542153269.06, -0.2, 0.94, -0.05, 3.36, 4.27, 40.32, 578.0, 920.0, -365.0, 31.56, 835.09, 1494.15]
[42477, 1542153269.07, -0.21, 1.0, -0.04, 1.82, 1.4, 42.56, 581.0, 920.0, -342.0, 31.56, 835.09, 1494.15]
[42478, 1542153269.08, -0.21, 0.96, -0.06, 0.35, -0.7, 43.89, 578.0, 916.0, -337.0, 31.56, 835.09, 1494.15]
[42479, 1542153269.09, -0.2, 0.95, -0.06, -0.49, -2.59, 44.87, 593.0, 896.0, -344.0, 31.56, 835.09, 1494.15]
[42480, 1542153269.1, -0.2, 0.98, -0.09, -0.21, -2.87, 45.22, 629.0, 898.0, -362.0, 31.56, 835.09, 1494.15]
[42481, 1542153269.11, -0.2, 1.0, -0.09, 0.0, -2.52, 45.43, 621.0, 902.0, -358.0, 31.56, 835.09, 1494.15]
[42482, 1542153269.12, -0.19, 0.98, -0.1, 0.0, -2.1, 45.92, 621.0, 902.0, -344.0, 31.56, 835.09, 1494.15]
[42483, 1542153269.13, -0.18, 0.95, -0.1, 0.21, -1.82, 45.99, 620.0, 898.0, -344.0, 31.56, 835.09, 1494.15]
[42484, 1542153269.14, -0.17, 0.97, -0.1, 0.28, -1.61, 46.27, 642.0, 896.0, -363.0, 31.56, 835.09, 1494.15]
[42485, 1542153269.15, -0.18, 0.98, -0.1, 0.35, -1.26, 46.76, 648.0, 886.0, -354.0, 31.56, 835.09, 1494.15]
[42486, 1542153269.17, -0.17, 0.99, -0.11, 0.28, -1.19, 47.88, 656.0, 894.0, -358.0, 31.56, 835.09, 1494.15]
[42487, 1542153269.18, -0.17, 0.99, -0.11, 0.28, -0.98, 48.93, 666.0, 894.0, -364.0, 31.56, 835.09, 1494.15]
[42488, 1542153269.19, -0.16, 0.98, -0.1, 0.35, -1.12, 49.63, 666.0, 883.0, -362.0, 31.56, 835.09, 1494.15]
[42489, 1542153269.2, -0.16, 0.98, -0.11, 17.85, -1.26, 50.82, 666.0, 883.0, -343.0, 31.56, 835.09, 1494.15]
[42490, 1542153269.21, -0.15, 0.99, -0.11, 0.35, -1.12, 51.94, 684.0, 883.0, -343.0, 31.56, 835.09, 1494.15]
[42491, 1542153269.22, -0.14, 1.0, -0.11, 0.14, -1.05, 52.99, 680.0, 883.0, -363.0, 31.56, 835.09, 1494.15]
[42492, 1542153269.23, -0.13, 0.99, -0.11, 0.07, -0.84, 53.76, 700.0, 879.0, -346.0, 31.56, 835.09, 1494.15]
[42493, 1542153269.24, -0.12, 0.98, -0.12, -0.07, -0.91, 54.67, 714.0, 873.0, -344.0, 31.56, 835.09, 1494.15]
[42494, 1542153269.25, -0.12, 0.96, -0.11, 0.21, -1.19, 55.51, 712.0, 857.0, -374.0, 31.56, 835.09, 1494.15]
[42495, 1542153269.26, -0.11, 0.97, -0.11, 0.21, -1.12, 56.0, 747.0, 837.0, -351.0, 31.56, 835.09, 1494.15]
[42496, 1542153269.27, -0.1, 0.97, -0.11, 0.63, -1.12, 57.19, 725.0, 851.0, -373.0, 31.56, 835.09, 1494.15]
[42497, 1542153269.29, -0.08, 0.97, -0.1, 0.49, -1.33, 57.61, 725.0, 851.0, -358.0, 31.56, 835.09, 1494.15]
[42498, 1542153269.3, -0.08, 0.96, -0.1, 0.7, -1.47, 58.31, 743.0, 857.0, -358.0, 31.56, 835.09, 1494.15]
[42499, 1542153269.31, -0.07, 0.95, -0.11, 0.91, -1.4, 58.94, 770.0, 853.0, -340.0, 31.56, 835.09, 1494.15]
[42500, 1542153269.32, -0.05, 0.94, -0.1, 0.91, -1.82, 59.15, 780.0, 847.0, -349.0, 31.56, 835.09, 1494.15]
[42501, 1542153269.33, -0.04, 0.95, -0.1, 0.91, -1.82, 59.78, 774.0, 827.0, -363.0, 31.56, 835.09, 1494.15]
[42502, 1542153269.34, -0.03, 0.96, -0.1, 1.26, -2.24, 60.34, 806.0, 827.0, -351.0, 31.56, 835.09, 1494.15]
[42503, 1542153269.35, 0.0, 0.94, -0.1, 1.26, -2.1, 60.62, 823.0, 825.0, -332.0, 31.56, 835.09, 1494.15]
[42504, 1542153269.36, 0.01, 0.96, -0.1, 1.75, -2.73, 60.76, 808.0, 837.0, -370.0, 31.56, 835.09, 1494.15]
[42505, 1542153269.37, 0.01, 0.94, -0.09, 2.03, -3.15, 60.76, 808.0, 837.0, -343.0, 31.56, 835.09, 1494.15]
[42506, 1542153269.38, 0.02, 0.95, -0.11, 2.1, -3.36, 60.9, 831.0, 814.0, -343.0, 31.56, 835.09, 1494.15]
[42507, 1542153269.39, 0.03, 0.97, -0.1, 2.17, -4.06, 60.9, 832.0, 812.0, -358.0, 31.56, 835.09, 1494.15]
[42508, 1542153269.41, 0.05, 0.98, -0.1, 2.52, -4.83, 61.25, 859.0, 832.0, -364.0, 31.56, 835.09, 1494.15]
[42509, 1542153269.42, 0.07, 0.97, -0.1, 2.94, -5.81, 61.11, 875.0, 814.0, -377.0, 31.56, 835.09, 1494.15]
[42510, 1542153269.43, 0.09, 0.97, -0.12, 2.8, -7.77, 60.48, 890.0, 829.0, -361.0, 31.56, 835.09, 1494.15]
[42511, 1542153269.44, 0.03, 1.01, -0.07, 3.29, -9.8, 58.66, 896.0, 825.0, -336.0, 31.56, 835.09, 1494.15]
[42512, 1542153269.45, 0.11, 1.02, -0.08, 3.15, -13.79, 56.28, 896.0, 813.0, -364.0, 31.56, 835.09, 1494.15]
[42513, 1542153269.46, 0.04, 0.97, -0.11, 2.59, -18.34, 51.87, 920.0, 813.0, -364.0, 31.56, 835.09, 1494.15]
[42514, 1542153269.47, 0.05, 0.99, -0.07, 1.75, -23.52, 47.53, 944.0, 806.0, -356.0, 31.56, 835.09, 1494.15]
[42515, 1542153269.48, 0.03, 0.98, -0.06, 1.96, -28.98, 42.7, 946.0, 806.0, -361.0, 31.56, 835.4, 1491.16]
[42516, 1542153269.49, 0.05, 1.0, -0.06, 0.28, -35.98, 37.38, 944.0, 822.0, -360.0, 31.56, 835.4, 1491.16]
[42517, 1542153269.5, 0.02, 0.92, -0.08, -0.42, -42.0, 31.43, 952.0, 802.0, -376.0, 31.56, 835.4, 1491.16]
[42518, 1542153269.51, 0.03, 0.93, -0.06, -2.1, -47.95, 25.34, 967.0, 800.0, -342.0, 31.56, 835.4, 1491.16]
[42519, 1542153269.53, 0.03, 0.92, -0.0, -3.01, -53.76, 18.06, 994.0, 809.0, -346.0, 31.56, 835.4, 1491.16]
[42520, 1542153269.54, 0.04, 0.92, -0.07, -4.9, -59.43, 11.97, 994.0, 809.0, -370.0, 31.56, 835.4, 1491.16]
[42521, 1542153269.55, 0.04, 0.95, -0.08, -6.86, -65.45, 5.81, 976.0, 819.0, -370.0, 31.56, 835.4, 1491.16]
[42522, 1542153269.56, 0.05, 0.95, -0.06, -8.47, -69.58, 0.63, 990.0, 813.0, -347.0, 31.56, 835.4, 1491.16]
[42523, 1542153269.57, 0.05, 0.95, -0.08, -11.2, -72.66, -4.27, 1002.0, 825.0, -368.0, 31.56, 835.4, 1491.16]
[42524, 1542153269.58, 0.06, 0.95, -0.08, -13.79, -75.74, -9.1, 1036.0, 831.0, -373.0, 31.56, 835.4, 1491.16]
[42525, 1542153269.59, 0.07, 0.98, -0.07, -16.31, -77.49, -14.49, 1068.0, 759.0, -432.0, 31.56, 835.4, 1491.16]
[42526, 1542153269.6, 0.07, 0.98, -0.08, -18.62, -78.47, -18.48, 1013.0, 835.0, -391.0, 31.56, 835.4, 1491.16]
[42527, 1542153269.61, 0.08, 0.98, -0.09, -20.93, -78.4, -21.07, 1013.0, 837.0, -387.0, 31.56, 835.4, 1491.16]
[42528, 1542153269.62, 0.09, 1.0, -0.09, -23.17, -78.4, -23.8, 1011.0, 837.0, -394.0, 31.56, 835.4, 1491.16]
[42529, 1542153269.63, 0.1, 1.0, -0.09, -25.27, -77.84, -25.76, 1009.0, 824.0, -394.0, 31.56, 835.4, 1491.16]
[42530, 1542153269.64, 0.1, 0.99, -0.09, -27.58, -76.58, -27.72, 1022.0, 839.0, -398.0, 31.56, 835.4, 1491.16]
[42531, 1542153269.66, 0.1, 0.99, -0.09, -29.33, -75.95, -28.56, 1017.0, 841.0, -410.0, 31.56, 835.4, 1491.16]
[42532, 1542153269.67, 0.1, 0.98, -0.09, -30.31, -75.11, -29.05, 1020.0, 831.0, -422.0, 31.56, 835.4, 1491.16]
[42533, 1542153269.68, 0.1, 0.97, -0.09, -31.36, -75.39, -29.47, 1022.0, 853.0, -418.0, 31.56, 835.4, 1491.16]
[42534, 1542153269.69, 0.1, 0.99, -0.1, -31.43, -75.39, -29.68, 1036.0, 855.0, -418.0, 31.56, 835.4, 1491.16]
[42535, 1542153269.7, 0.11, 0.99, -0.1, -31.99, -76.16, -29.96, 1036.0, 843.0, -410.0, 31.56, 835.4, 1491.16]
[42536, 1542153269.71, 0.11, 0.98, -0.1, -31.92, -76.65, -30.31, 1034.0, 843.0, -410.0, 31.56, 835.4, 1491.16]
[42537, 1542153269.72, 0.1, 0.97, -0.1, -32.13, -77.42, -30.45, 1032.0, 869.0, -406.0, 31.56, 835.4, 1491.16]
[42538, 1542153269.73, 0.1, 1.0, -0.1, -32.55, -78.05, -30.59, 1040.0, 863.0, -429.0, 31.56, 835.4, 1491.16]
[42539, 1542153269.74, 0.1, 1.0, -0.1, -32.76, -78.82, -31.22, 1042.0, 861.0, -431.0, 31.56, 835.4, 1491.16]
[42540, 1542153269.75, 0.1, 1.0, -0.1, -32.9, -79.66, -31.57, 1048.0, 871.0, -418.0, 31.56, 835.4, 1491.16]
[42541, 1542153269.76, 0.1, 0.99, -0.1, -32.76, -80.43, -32.48, 1036.0, 875.0, -449.0, 31.56, 835.4, 1491.16]
[42542, 1542153269.78, 0.1, 1.0, -0.09, -33.25, -81.06, -33.32, 1040.0, 894.0, -460.0, 31.56, 835.4, 1491.16]
[42543, 1542153269.79, 0.09, 1.01, -0.09, -33.6, -81.76, -33.67, 1040.0, 894.0, -464.0, 31.56, 835.4, 1491.16]
[42544, 1542153269.8, 0.09, 1.01, -0.09, -33.32, -82.74, -34.09, 1045.0, 896.0, -464.0, 31.56, 835.4, 1491.16]
[42545, 1542153269.81, 0.08, 1.01, -0.08, -32.83, -83.37, -34.72, 1063.0, 878.0, -462.0, 31.56, 835.4, 1491.16]
[42546, 1542153269.82, 0.08, 1.01, -0.08, -33.25, -83.93, -35.49, 1053.0, 896.0, -459.0, 31.56, 835.4, 1491.16]
[42547, 1542153269.83, 0.07, 1.0, -0.08, -33.25, -84.49, -35.98, 1061.0, 888.0, -479.0, 31.56, 835.4, 1491.16]
[42548, 1542153269.84, 0.06, 1.0, -0.07, -33.32, -85.4, -36.61, 1075.0, 898.0, -456.0, 31.56, 835.4, 1491.16]
[42549, 1542153269.85, 0.06, 1.0, -0.07, -33.25, -85.75, -37.17, 1058.0, 904.0, -486.0, 31.56, 835.4, 1491.16]
[42550, 1542153269.86, 0.06, 1.01, -0.06, -33.39, -86.45, -37.24, 1058.0, 906.0, -436.0, 31.56, 835.4, 1491.16]
[42551, 1542153269.87, 0.05, 1.0, -0.05, -33.32, -87.01, -38.15, 1060.0, 906.0, -471.0, 31.56, 835.4, 1491.16]
[42552, 1542153269.88, 0.05, 1.0, -0.05, -33.25, -87.5, -38.5, 1080.0, 938.0, -471.0, 31.56, 835.4, 1491.16]
[42553, 1542153269.9, 0.04, 1.0, -0.04, -33.39, -88.2, -39.13, 1076.0, 918.0, -485.0, 31.56, 835.4, 1491.16]
[42554, 1542153269.91, 0.03, 1.01, -0.04, -33.32, -88.62, -39.62, 1072.0, 936.0, -477.0, 31.56, 835.4, 1491.16]
[42555, 1542153269.92, 0.03, 1.0, -0.03, -33.04, -88.83, -39.97, 1085.0, 916.0, -496.0, 31.56, 835.4, 1491.16]
[42556, 1542153269.93, 0.02, 1.0, -0.03, -33.46, -89.39, -40.32, 1097.0, 951.0, -497.0, 31.56, 835.4, 1491.16]
[42557, 1542153269.94, 0.01, 1.0, -0.02, -33.11, -89.46, -40.46, 1091.0, 931.0, -523.0, 31.56, 835.4, 1491.16]
[42558, 1542153269.95, 0.01, 1.01, -0.01, -33.11, -89.74, -41.09, 1091.0, 942.0, -517.0, 31.56, 835.4, 1491.16]
[42559, 1542153269.96, 0.01, 1.0, -0.01, -32.69, -89.88, -41.65, 1095.0, 942.0, -517.0, 31.56, 835.4, 1491.16]
[42560, 1542153269.97, 0.0, 1.0, -0.0, -32.2, -90.02, -41.65, 1111.0, 947.0, -514.0, 31.56, 835.4, 1491.16]
[42561, 1542153269.98, -0.0, 0.99, 0.0, -32.34, -90.02, -41.93, 1121.0, 956.0, -550.0, 31.56, 835.4, 1491.16]
[42562, 1542153269.99, -0.0, 0.99, 0.01, -32.34, -89.81, -41.86, 1125.0, 977.0, -518.0, 31.56, 835.4, 1491.16]
[42563, 1542153270.0, -0.01, 0.99, 0.02, -32.13, -89.95, -42.35, 1113.0, 942.0, -526.0, 31.56, 835.4, 1491.16]
[42564, 1542153270.02, -0.01, 0.99, 0.02, -31.92, -89.74, -42.21, 1127.0, 961.0, -533.0, 31.56, 835.4, 1491.16]
[42565, 1542153270.03, -0.02, 0.98, 0.03, -31.5, -89.39, -42.28, 1129.0, 953.0, -540.0, 31.56, 835.4, 1491.16]
[42566, 1542153270.04, -0.02, 0.99, 0.04, -31.29, -89.18, -42.56, 1129.0, 953.0, -528.0, 31.56, 835.4, 1491.16]
[42567, 1542153270.05, -0.02, 1.0, 0.04, -31.15, -88.9, -42.84, 1133.0, 977.0, -528.0, 31.56, 835.4, 1491.16]
[42568, 1542153270.06, -0.09, 0.93, 0.02, -31.36, -88.2, -42.7, 1148.0, 949.0, -571.0, 31.56, 835.4, 1491.16]
[42569, 1542153270.07, -0.03, 1.04, 0.09, -30.87, -87.64, -42.77, 1127.0, 999.0, -552.0, 31.56, 835.4, 1491.16]
[42570, 1542153270.08, -0.05, 0.98, 0.12, -29.12, -87.43, -42.91, 1158.0, 975.0, -546.0, 31.56, 835.4, 1491.16]
[42571, 1542153270.09, -0.05, 0.96, 0.03, -29.96, -86.45, -42.84, 1160.0, 997.0, -530.0, 31.56, 835.4, 1491.16]
[42572, 1542153270.1, -0.04, 1.03, 0.06, -29.26, -85.82, -42.7, 1152.0, 983.0, -553.0, 31.56, 835.4, 1491.16]
[42573, 1542153270.11, -0.03, 1.06, 0.12, -28.21, -84.77, -43.05, 1152.0, 987.0, -557.0, 31.56, 835.4, 1491.16]
[42574, 1542153270.12, -0.05, 0.99, 0.07, -28.63, -83.37, -43.19, 1164.0, 987.0, -557.0, 31.56, 835.4, 1491.16]
[42575, 1542153270.13, -0.01, 0.99, 0.1, -27.93, -82.74, -43.4, 1154.0, 991.0, -546.0, 31.56, 835.4, 1491.16]
[42576, 1542153270.15, -0.06, 1.0, 0.12, -27.3, -81.69, -43.19, 1170.0, 1001.0, -550.0, 31.56, 835.4, 1491.16]
[42577, 1542153270.16, -0.07, 0.98, 0.09, -26.6, -80.71, -43.33, 1155.0, 1005.0, -549.0, 31.56, 835.4, 1491.16]
[42578, 1542153270.17, -0.08, 1.01, 0.1, -26.25, -79.66, -43.19, 1177.0, 1013.0, -555.0, 31.56, 835.4, 1491.16]
[42579, 1542153270.18, -0.08, 1.01, 0.12, -25.2, -77.84, -42.84, 1168.0, 999.0, -548.0, 31.56, 835.4, 1491.16]
[42580, 1542153270.19, -0.07, 1.01, 0.12, -24.92, -76.23, -43.19, 1199.0, 1022.0, -546.0, 31.56, 835.4, 1491.16]
[42581, 1542153270.2, -0.04, 1.0, 0.11, -24.08, -74.69, -42.56, 1199.0, 961.0, -610.0, 31.56, 835.4, 1491.16]
[42582, 1542153270.21, -0.06, 1.02, 0.07, -21.91, -73.64, -41.44, 1235.0, 961.0, -610.0, 31.56, 835.4, 1491.16]
[42583, 1542153270.22, -0.06, 0.99, 0.13, -19.67, -72.17, -40.32, 1163.0, 1020.0, -571.0, 31.56, 835.4, 1491.16]
[42584, 1542153270.23, -0.06, 0.95, 0.11, -17.64, -71.05, -38.57, 1179.0, 1024.0, -564.0, 31.56, 835.4, 1491.16]
[42585, 1542153270.24, -0.07, 1.0, 0.11, -14.56, -70.42, -36.61, 1183.0, 1000.0, -543.0, 31.56, 835.4, 1491.16]
